"Time (s)"	"Acceleration x (m/s^2)"	"Acceleration y (m/s^2)"	"Acceleration z (m/s^2)"	"Absolute acceleration (m/s^2)"
0.000000000E0	-1.788929901E0	1.924996948E-1	9.426796875E0	9.596969607E0
9.963999968E-3	-1.953737183E0	3.215313721E-1	9.738598480E0	9.937845429E0
1.992699993E-2	-1.790426788E0	1.886077881E-1	9.438921661E0	9.609081283E0
2.989100001E-2	-1.911524963E0	3.067121887E-1	9.693542175E0	9.884976477E0
3.985399997E-2	-1.962119751E0	1.800755310E-1	9.481133881E0	9.683710073E0
4.981799994E-2	-1.861828308E0	2.917433167E-1	9.665849762E0	9.847851057E0
5.978099990E-2	-1.963167572E0	1.889071655E-1	9.514963531E0	9.717213790E0
6.974499999E-2	-1.772464142E0	2.424957275E-1	9.619745636E0	9.784678810E0
7.970899995E-2	-2.030377808E0	2.249821472E-1	9.599238281E0	9.814195157E0
8.967199991E-2	-1.764680328E0	2.338137817E-1	9.525292053E0	9.690198875E0
9.963600000E-2	-2.081571350E0	2.794688416E-1	9.642049255E0	9.868138424E0
1.095990000E-1	-1.685494995E0	2.098635864E-1	9.464219055E0	9.615423986E0
1.195629999E-1	-2.097737732E0	2.842588806E-1	9.771679688E0	9.998351395E0
1.295260000E-1	-1.743274841E0	1.537303162E-1	9.388027496E0	9.549748712E0
1.394900000E-1	-2.000889130E0	3.041674805E-1	9.697284393E0	9.906230351E0
1.494539999E-1	-1.796114960E0	1.715432739E-1	9.418563995E0	9.589828141E0
1.594169999E-1	-1.895807648E0	3.046165466E-1	9.683962097E0	9.872487011E0
1.693810000E-1	-1.944007416E0	1.609153748E-1	9.499844971E0	9.698046868E0
1.793439999E-1	-1.907932434E0	3.028202820E-1	9.688752136E0	9.879464776E0
1.893079999E-1	-1.899998932E0	1.791773987E-1	9.599537659E0	9.787401276E0
1.992710000E-1	-1.810784454E0	2.610571289E-1	9.597442017E0	9.770260203E0
2.092350000E-1	-1.988315277E0	2.183958435E-1	9.635912018E0	9.841336027E0
2.191989999E-1	-1.837728424E0	2.257305908E-1	9.557175751E0	9.734875880E0
2.291620000E-1	-2.046993256E0	2.378553772E-1	9.643546143E0	9.861274703E0
2.391260000E-1	-1.752555542E0	1.956431580E-1	9.474397888E0	9.637112769E0
2.490889999E-1	-1.980082397E0	2.603086853E-1	9.731712799E0	9.934521675E0
2.590529999E-1	-1.762884064E0	1.992356873E-1	9.473200378E0	9.637892949E0
2.690160000E-1	-1.963167572E0	2.950364685E-1	9.695039063E0	9.896204114E0
2.789799999E-1	-1.834884338E0	1.648072815E-1	9.460476837E0	9.638183644E0
2.889439999E-1	-1.932631073E0	3.002755737E-1	9.697583771E0	9.892843842E0
2.989070000E-1	-1.877545624E0	1.628613281E-1	9.472302246E0	9.657961028E0
3.088710000E-1	-1.923949127E0	2.731819153E-1	9.665700073E0	9.859105766E0
3.188339999E-1	-1.914219360E0	1.911524963E-1	9.526938629E0	9.719225004E0
3.287980000E-1	-1.829196167E0	2.571652222E-1	9.712253265E0	9.886352010E0
3.387610000E-1	-1.985471191E0	1.966909790E-1	9.562714233E0	9.768637914E0
3.487249999E-1	-1.766476593E0	2.609074402E-1	9.662257233E0	9.825870296E0
3.586889999E-1	-2.041305084E0	2.197430420E-1	9.640103302E0	9.856307885E0
3.686520000E-1	-1.700613556E0	2.083666992E-1	9.476194153E0	9.629836903E0
3.786159999E-1	-2.054926758E0	2.444416809E-1	9.663155365E0	9.882259222E0
3.885789999E-1	-1.766476593E0	1.920506287E-1	9.463470612E0	9.628842039E0
3.985430000E-1	-2.004930725E0	2.962339783E-1	9.704020386E0	9.913400700E0
4.085057916E-1	-1.725761261E0	1.459465027E-1	9.477840729E0	9.634781637E0
4.184697916E-1	-1.992955627E0	3.014730835E-1	9.778565369E0	9.984142368E0
4.284337916E-1	-1.748214569E0	1.531315613E-1	9.553583221E0	9.713426575E0
4.383967916E-1	-1.964963837E0	2.811154175E-1	9.659413147E0	9.861256061E0
4.483607917E-1	-1.867217102E0	1.621128845E-1	9.523645477E0	9.706317709E0
4.583237916E-1	-1.870659943E0	2.650987244E-1	9.685908051E0	9.868457869E0
4.682877916E-1	-1.949545898E0	1.634600830E-1	9.517807617E0	9.716795266E0
4.782517917E-1	-1.854493561E0	2.538720703E-1	9.614955597E0	9.795456525E0
4.882147916E-1	-1.958377533E0	2.016307068E-1	9.591604156E0	9.791566157E0
4.981787916E-1	-1.714833984E0	2.326162720E-1	9.598789215E0	9.753538861E0
5.081417917E-1	-2.006427612E0	2.296224976E-1	9.651928711E0	9.860943469E0
5.181057916E-1	-1.722318420E0	1.890568542E-1	9.555828552E0	9.711641599E0
5.280687916E-1	-2.019450531E0	2.463876343E-1	9.673334198E0	9.884952292E0
5.380327916E-1	-1.653311920E0	1.369651794E-1	9.484427032E0	9.628424373E0
5.479967917E-1	-2.027833099E0	2.727328491E-1	9.651030579E0	9.865540103E0
5.579597916E-1	-1.750459900E0	1.496887207E-1	9.510472870E0	9.671381017E0
5.679237916E-1	-2.062710571E0	2.921923828E-1	9.725425873E0	9.946057495E0
5.778867917E-1	-1.732796631E0	1.555265808E-1	9.483678589E0	9.641936126E0
5.878507916E-1	-1.942510529E0	2.606080627E-1	9.729467468E0	9.924908107E0
5.978137916E-1	-1.823807373E0	1.592687988E-1	9.537416840E0	9.711537461E0
6.077777917E-1	-1.878443756E0	2.733316040E-1	9.643845520E0	9.828886891E0
6.177417916E-1	-1.913620605E0	1.616638184E-1	9.529034271E0	9.720626171E0
6.277047916E-1	-1.783541107E0	2.339634705E-1	9.648186493E0	9.814441420E0
6.376687916E-1	-1.924996948E0	1.776805115E-1	9.631571045E0	9.823662474E0
6.476317917E-1	-1.771865387E0	1.767823792E-1	9.534872131E0	9.699718837E0
6.575957916E-1	-2.027384033E0	2.492317200E-1	9.717941437E0	9.930296483E0
6.675597916E-1	-1.638043671E0	1.701960754E-1	9.471254425E0	9.613366432E0
6.775227917E-1	-2.044149170E0	2.616558838E-1	9.726922760E0	9.942838428E0
6.874867916E-1	-1.730251923E0	1.505868530E-1	9.484876099E0	9.642578634E0
6.974497916E-1	-1.988764343E0	2.671943665E-1	9.711654510E0	9.916794330E0
7.074137917E-1	-1.744622040E0	1.324745178E-1	9.487570496E0	9.647551475E0
7.173767916E-1	-1.922452240E0	2.764750671E-1	9.661957855E0	9.855236713E0
7.273407916E-1	-1.788630524E0	1.468446350E-1	9.528435516E0	9.695970601E0
7.373047916E-1	-1.962718506E0	2.659968567E-1	9.663454742E0	9.864348728E0
7.472677917E-1	-1.818717957E0	1.736389160E-1	9.539662170E0	9.713034531E0
7.572317916E-1	-1.807341614E0	2.067201233E-1	9.656119995E0	9.825979355E0
7.671947916E-1	-1.900747375E0	1.896556091E-1	9.569150848E0	9.757943318E0
7.771587917E-1	-1.769470367E0	2.100132751E-1	9.595196686E0	9.759248454E0
7.871217916E-1	-1.952389984E0	2.100132751E-1	9.575737152E0	9.775002518E0
7.970857916E-1	-1.769620056E0	1.948947144E-1	9.576186218E0	9.740271125E0
8.070497917E-1	-1.978435822E0	2.486329651E-1	9.692045288E0	9.895037570E0
8.170127916E-1	-1.727557526E0	1.381626892E-1	9.480086060E0	9.637197499E0
8.269767916E-1	-2.006128235E0	2.935395813E-1	9.705966339E0	9.915467642E0
8.369397916E-1	-1.638492737E0	1.109193420E-1	9.492210846E0	9.633225228E0
8.469037917E-1	-1.991758118E0	2.704875183E-1	9.661957855E0	9.868824322E0
8.568667916E-1	-1.762734375E0	1.535806274E-1	9.542655945E0	9.705313079E0
8.668307916E-1	-1.975591736E0	2.454895020E-1	9.722432098E0	9.924158086E0
8.767947917E-1	-1.755399628E0	1.877096558E-1	9.480834503E0	9.643800374E0
8.867577916E-1	-1.875899048E0	2.519261169E-1	9.677375793E0	9.860733556E0
8.967217916E-1	-1.863325195E0	1.788780212E-1	9.528435516E0	9.710564428E0
9.066847917E-1	-1.874701538E0	2.348616028E-1	9.590256958E0	9.774594332E0
9.166487916E-1	-1.879641266E0	1.751358032E-1	9.594148865E0	9.778109034E0
9.266127916E-1	-1.772314453E0	1.923500061E-1	9.528734894E0	9.694064458E0
9.365757916E-1	-1.852846985E0	2.177970886E-1	9.708211670E0	9.885840953E0
9.465397917E-1	-1.789229279E0	1.597178650E-1	9.528585205E0	9.696431674E0
9.565027916E-1	-1.928888855E0	2.809657288E-1	9.651779022E0	9.846643705E0
9.664667916E-1	-1.806144104E0	1.579216003E-1	9.523046722E0	9.694096896E0
9.764297917E-1	-1.920805664E0	2.802172852E-1	9.675280151E0	9.868083002E0
9.863937916E-1	-1.790576477E0	1.460961914E-1	9.492360535E0	9.660870392E0
9.963577916E-1	-1.943408661E0	2.800675964E-1	9.652976532E0	9.850646223E0
1.006320792E0	-1.777703247E0	1.429527283E-1	9.516610107E0	9.682279290E0
1.016284792E0	-1.868863678E0	2.207908630E-1	9.652078400E0	9.833820086E0
1.026247792E0	-1.826651459E0	1.916015625E-1	9.547146606E0	9.722210399E0
1.036211792E0	-1.862576752E0	2.278262329E-1	9.737251282E0	9.916408597E0
1.046175792E0	-1.884131927E0	2.119592285E-1	9.493857422E0	9.681332996E0
1.056138792E0	-1.791474609E0	2.282752991E-1	9.618248749E0	9.786327191E0
1.066102792E0	-1.935924225E0	2.152523804E-1	9.535919952E0	9.732826184E0
1.076065792E0	-1.730401611E0	1.871109009E-1	9.544601898E0	9.701995961E0
1.086029792E0	-1.991608429E0	2.535726929E-1	9.607321472E0	9.814857570E0
1.095992792E0	-1.706301727E0	1.474433899E-1	9.524094543E0	9.676858065E0
1.105956792E0	-1.982926483E0	2.751278687E-1	9.692494354E0	9.897077326E0
1.115920792E0	-1.711241455E0	1.543290710E-1	9.554780731E0	9.708037886E0
1.125883792E0	-1.995650024E0	2.891986084E-1	9.655221863E0	9.863547236E0
1.135847792E0	-1.761387177E0	1.645079041E-1	9.489666138E0	9.653150317E0
1.145810792E0	-1.960622864E0	2.556683350E-1	9.661957855E0	9.862192348E0
1.155774792E0	-1.785636749E0	1.514849854E-1	9.502389679E0	9.669894307E0
1.165737792E0	-1.867516479E0	2.356100464E-1	9.579179993E0	9.762367501E0
1.175701792E0	-1.848805389E0	1.838177490E-1	9.555678864E0	9.734622174E0
1.185665792E0	-1.819616089E0	2.080673218E-1	9.618099060E0	9.790920501E0
1.195628792E0	-1.901196442E0	2.312690735E-1	9.585915985E0	9.775367950E0
1.205592792E0	-1.839674377E0	2.134561157E-1	9.592951355E0	9.770091147E0
1.215555792E0	-1.925895081E0	2.507286072E-1	9.633666687E0	9.827485463E0
1.225519792E0	-1.729353790E0	1.986369324E-1	9.503437500E0	9.661544674E0
1.235483792E0	-1.942510529E0	2.531236267E-1	9.616153107E0	9.813654737E0
1.245446792E0	-1.761985931E0	1.577719116E-1	9.554181976E0	9.716577568E0
1.255410792E0	-1.999392242E0	2.812651062E-1	9.631720734E0	9.841073300E0
1.265373792E0	-1.727108459E0	1.550775146E-1	9.526339874E0	9.682876849E0
1.275337792E0	-1.980082397E0	2.643502808E-1	9.693242798E0	9.896947171E0
1.285300792E0	-1.725312195E0	1.851649475E-1	9.520951080E0	9.677783718E0
1.295264792E0	-1.998793488E0	2.537223816E-1	9.625733185E0	9.834342367E0
1.305228792E0	-1.760189667E0	2.080673218E-1	9.449699249E0	9.614487796E0
1.315191792E0	-1.896107025E0	2.404000854E-1	9.659712524E0	9.846982284E0
1.325155792E0	-1.811682587E0	1.980381775E-1	9.536668396E0	9.709245955E0
1.335118792E0	-1.860032043E0	2.101629639E-1	9.629325714E0	9.809577024E0
1.345082792E0	-1.904489594E0	2.163002014E-1	9.587861938E0	9.777574492E0
1.355046792E0	-1.763482819E0	2.335144043E-1	9.551786957E0	9.716019488E0
1.365009792E0	-1.935475159E0	2.342628479E-1	9.642498322E0	9.837617448E0
1.374973792E0	-1.830243988E0	1.784289551E-1	9.532177734E0	9.707937078E0
1.384936792E0	-1.953138428E0	2.688409424E-1	9.685159607E0	9.883791873E0
1.394900792E0	-1.774859161E0	1.592687988E-1	9.534572754E0	9.699668509E0
1.404863792E0	-1.873054962E0	2.480342102E-1	9.642198944E0	9.825571553E0
1.414827792E0	-1.820963287E0	1.541793823E-1	9.570498047E0	9.743413747E0
1.424791792E0	-1.958078156E0	2.799179077E-1	9.629026337E0	9.830085060E0
1.434754792E0	-1.816322937E0	1.764830017E-1	9.516161041E0	9.689556039E0
1.444718792E0	-1.871258698E0	2.570155334E-1	9.602681122E0	9.786682320E0
1.454681792E0	-1.791324921E0	1.947450256E-1	9.557624817E0	9.725994177E0
1.464645792E0	-1.896256714E0	2.438429260E-1	9.554481354E0	9.743888486E0
1.474609792E0	-1.923050995E0	2.143542480E-1	9.557325439E0	9.751232867E0
1.484572792E0	-1.820065155E0	1.989363098E-1	9.630822601E0	9.803313562E0
1.494536792E0	-1.900447998E0	2.255809021E-1	9.620344391E0	9.808853936E0
1.504499792E0	-1.795366516E0	1.649569702E-1	9.597142639E0	9.765024248E0
1.514463792E0	-1.959425354E0	2.481838989E-1	9.619595947E0	9.820263192E0
1.524426792E0	-1.792073364E0	1.848655701E-1	9.576335907E0	9.744327151E0
1.534390792E0	-1.933379517E0	2.668949890E-1	9.604477386E0	9.800774212E0
1.544354792E0	-1.818119202E0	1.842668152E-1	9.559870148E0	9.732966091E0
1.554317792E0	-1.916165314E0	2.448907471E-1	9.643097076E0	9.834682619E0
1.564281792E0	-1.807790680E0	1.812730408E-1	9.533824310E0	9.705399169E0
1.574244792E0	-1.880689087E0	2.453398132E-1	9.651928711E0	9.836509081E0
1.584208792E0	-1.834135895E0	1.797761536E-1	9.529932404E0	9.706491929E0
1.594172792E0	-1.929936676E0	2.691403198E-1	9.700427856E0	9.894210059E0
1.604135792E0	-1.821861420E0	1.838177490E-1	9.544601898E0	9.718662119E0
1.614099792E0	-1.905238037E0	2.219883728E-1	9.596244507E0	9.786067619E0
1.624062792E0	-1.844614105E0	2.395019531E-1	9.628876648E0	9.806896955E0
1.634026792E0	-1.868414612E0	2.028282166E-1	9.536219330E0	9.719649765E0
1.643990792E0	-1.910177765E0	2.475851440E-1	9.574988708E0	9.766805325E0
1.653953792E0	-1.876797180E0	1.657054138E-1	9.530980225E0	9.715421246E0
1.663917792E0	-1.911524963E0	2.785707092E-1	9.605824585E0	9.798132234E0
1.673880792E0	-1.810036011E0	1.657054138E-1	9.563163300E0	9.734360839E0
1.683844792E0	-1.929188232E0	2.644999695E-1	9.606573029E0	9.801937197E0
1.693807792E0	-1.800755310E0	2.065704346E-1	9.621990967E0	9.791225725E0
1.703771792E0	-1.873803406E0	2.582130432E-1	9.599837036E0	9.784410268E0
1.713735792E0	-1.900447998E0	1.773811340E-1	9.614207153E0	9.801844002E0
1.723698792E0	-1.896556091E0	2.435435486E-1	9.615254974E0	9.803538478E0
1.733662792E0	-1.847757568E0	1.871109009E-1	9.533824310E0	9.713033743E0
1.743625792E0	-1.867965546E0	2.266287231E-1	9.593550110E0	9.776341830E0
1.753589792E0	-1.862127686E0	1.987866211E-1	9.567354584E0	9.748913240E0
1.763553792E0	-1.910626831E0	2.451901245E-1	9.627529449E0	9.818346927E0
1.773516792E0	-1.898052979E0	2.703378296E-1	9.572893066E0	9.762989773E0
1.783480792E0	-1.863624573E0	1.830693054E-1	9.637558594E0	9.817797440E0
1.793443792E0	-1.889820099E0	2.558180237E-1	9.607471161E0	9.794915261E0
1.803407792E0	-1.873204651E0	1.908531189E-1	9.580826569E0	9.764095366E0
1.813370792E0	-1.898202667E0	2.510279846E-1	9.507179718E0	9.698074789E0
1.823334792E0	-1.856289825E0	1.722917175E-1	9.601034546E0	9.780355858E0
1.833298792E0	-1.870959320E0	2.501298523E-1	9.602681122E0	9.786446671E0
1.843261792E0	-1.827399902E0	2.032772827E-1	9.591005402E0	9.765659049E0
1.853225792E0	-1.968107300E0	2.559677124E-1	9.601034546E0	9.804021122E0
1.863188792E0	-1.829196167E0	1.974394226E-1	9.586365051E0	9.761318345E0
1.873152792E0	-1.904788971E0	2.502795410E-1	9.583221588E0	9.773893640E0
1.883116792E0	-1.835034027E0	2.035766602E-1	9.560169525E0	9.736818509E0
1.893079792E0	-1.976040802E0	2.306703186E-1	9.589957581E0	9.794142762E0
1.903043792E0	-1.817520447E0	2.495310974E-1	9.582772522E0	9.756801502E0
1.913006792E0	-1.924697571E0	2.068698120E-1	9.535021820E0	9.729537346E0
1.922970792E0	-1.824705505E0	2.559677124E-1	9.585766296E0	9.761249159E0
1.932933792E0	-1.909279633E0	1.980381775E-1	9.613608398E0	9.803368517E0
1.942897792E0	-1.875000916E0	2.673440552E-1	9.600286102E0	9.785325468E0
1.952861792E0	-1.920057220E0	1.628613281E-1	9.620643768E0	9.811724112E0
1.962824792E0	-1.828148346E0	2.591111755E-1	9.570198669E0	9.746690082E0
1.972788792E0	-1.871707764E0	1.911524963E-1	9.637857971E0	9.819782864E0
1.982751792E0	-1.941911774E0	2.579136658E-1	9.495953064E0	9.695909725E0
1.992715792E0	-1.866019592E0	2.136058044E-1	9.543554077E0	9.726617140E0
2.002679792E0	-1.973945160E0	2.571652222E-1	9.610015869E0	9.814020504E0
2.012642792E0	-1.807341614E0	2.179467773E-1	9.548194427E0	9.720185252E0
2.022606792E0	-1.907483368E0	2.219883728E-1	9.611363068E0	9.801330096E0
2.032569792E0	-1.838327179E0	1.866618347E-1	9.556726685E0	9.733720480E0
2.042533792E0	-1.910327454E0	2.320175171E-1	9.638606415E0	9.828830893E0
2.052497792E0	-1.820065155E0	2.106120300E-1	9.523346100E0	9.697995439E0
2.062460792E0	-1.962269440E0	2.210902405E-1	9.624385986E0	9.824875972E0
2.072424792E0	-1.849404144E0	2.619552612E-1	9.517957306E0	9.699506561E0
2.082387792E0	-1.888173523E0	2.071691895E-1	9.580676880E0	9.767163754E0
2.092351792E0	-1.879940643E0	2.603086853E-1	9.514664154E0	9.702101391E0
2.102315792E0	-1.865271149E0	1.971400452E-1	9.681866455E0	9.861878052E0
2.112278792E0	-1.927841034E0	2.423460388E-1	9.555379486E0	9.750927124E0
2.122242792E0	-1.839375000E0	1.815724182E-1	9.652377777E0	9.827749777E0
2.132205792E0	-1.969304810E0	2.389031982E-1	9.570947113E0	9.774367745E0
2.142169792E0	-1.778302002E0	2.019300842E-1	9.594448242E0	9.759947277E0
2.152133792E0	-2.018402710E0	2.570155334E-1	9.528136139E0	9.742965912E0
2.162096792E0	-1.755399628E0	2.332150269E-1	9.565258942E0	9.727795008E0
2.172060792E0	-2.029779053E0	2.395019531E-1	9.588011627E0	9.803434661E0
2.182023792E0	-1.712289276E0	2.432441711E-1	9.574539642E0	9.729486711E0
2.191987792E0	-2.056872711E0	1.878593445E-1	9.574839020E0	9.795078292E0
2.201950792E0	-1.704655151E0	2.429447937E-1	9.496701508E0	9.651539301E0
2.211914792E0	-2.048041077E0	1.889071655E-1	9.642797699E0	9.859701092E0
2.221878792E0	-1.719025269E0	2.513273621E-1	9.491312714E0	9.649001521E0
2.231841792E0	-1.996697845E0	1.956431580E-1	9.702074432E0	9.907337020E0
2.241805792E0	-1.843865662E0	2.850073242E-1	9.528585205E0	9.709531696E0
2.251768792E0	-1.939367065E0	2.287243652E-1	9.629475403E0	9.825490114E0
2.261732792E0	-1.869462433E0	2.291734314E-1	9.481133881E0	9.666401084E0
2.271696792E0	-1.881138153E0	1.954934692E-1	9.592951355E0	9.777607793E0
2.281659792E0	-1.960024109E0	2.537223816E-1	9.596394196E0	9.797798279E0
2.291623792E0	-1.784888306E0	1.847158813E-1	9.549691315E0	9.716817917E0
2.301586792E0	-1.994901581E0	2.433938599E-1	9.637857971E0	9.845160190E0
2.311550792E0	-1.664388885E0	2.275268555E-1	9.579778748E0	9.725950837E0
2.321514792E0	-2.073188782E0	2.474354553E-1	9.582772522E0	9.807592224E0
2.331477792E0	-1.726360016E0	2.398013306E-1	9.488468628E0	9.647220350E0
2.341441792E0	-2.089953918E0	2.182461548E-1	9.604477386E0	9.831659302E0
2.351404792E0	-1.742825775E0	2.333647156E-1	9.545649719E0	9.706252075E0
2.361368792E0	-2.009720764E0	1.942959595E-1	9.660161591E0	9.868913336E0
2.371331792E0	-1.768123169E0	2.171983337E-1	9.490115204E0	9.655864603E0
2.381295792E0	-1.986069946E0	2.285746765E-1	9.701475677E0	9.905319305E0
2.391259792E0	-1.801354065E0	2.127076721E-1	9.501790924E0	9.673373341E0
2.401222792E0	-1.937720490E0	2.239343262E-1	9.629774780E0	9.825348319E0
2.411190375E0	-1.901944885E0	2.826123047E-1	9.551786957E0	9.743402800E0
2.421153375E0	-1.820813599E0	2.019300842E-1	9.579629059E0	9.753226688E0
2.431117375E0	-1.944606171E0	2.293231201E-1	9.456135864E0	9.656737945E0
2.441081375E0	-1.793719940E0	2.038760376E-1	9.588460693E0	9.756924471E0
2.451044375E0	-2.046244812E0	2.282752991E-1	9.616003418E0	9.833958978E0
2.461008375E0	-1.736838226E0	2.266287231E-1	9.585317230E0	9.744037870E0
2.470971375E0	-2.003882904E0	1.907034302E-1	9.619745636E0	9.828093436E0
2.480935375E0	-1.763482819E0	2.516267395E-1	9.561666412E0	9.726183848E0
2.490899375E0	-1.991758118E0	2.161505127E-1	9.648635559E0	9.854440095E0
2.500862375E0	-1.761686554E0	2.404000854E-1	9.411828003E0	9.578300375E0
2.510826375E0	-1.993704071E0	2.188449097E-1	9.702373810E0	9.907512632E0
2.520789375E0	-1.796863403E0	2.341131592E-1	9.464518433E0	9.636422377E0
2.530753375E0	-1.956132202E0	2.017803955E-1	9.673932953E0	9.871785416E0
2.540717375E0	-1.920805664E0	2.182461548E-1	9.531578979E0	9.725642582E0
2.550680375E0	-1.798060913E0	2.504292297E-1	9.638007660E0	9.807493538E0
2.560644375E0	-1.934277649E0	2.409988403E-1	9.584119720E0	9.780330326E0
2.570607375E0	-1.770967255E0	2.173480225E-1	9.617500305E0	9.781609137E0
2.580571375E0	-1.995200958E0	2.450404358E-1	9.586215363E0	9.794712689E0
2.590534375E0	-1.751507721E0	1.986369324E-1	9.547296295E0	9.708661209E0
2.600498375E0	-2.036814423E0	2.254312134E-1	9.550290070E0	9.767674884E0
2.610462375E0	-1.713337097E0	1.848655701E-1	9.524244232E0	9.678890819E0
2.620425375E0	-2.102228394E0	2.354603577E-1	9.629774780E0	9.859379702E0
2.630389375E0	-1.715133362E0	2.371069336E-1	9.559271393E0	9.714811975E0
2.640352375E0	-1.975442047E0	1.980381775E-1	9.653126221E0	9.855173070E0
2.650316375E0	-1.719923401E0	2.568658447E-1	9.525741119E0	9.683174089E0
2.660280375E0	-1.933529205E0	2.348616028E-1	9.762997742E0	9.955391507E0
2.670243375E0	-1.848206635E0	2.139051819E-1	9.435628510E0	9.617312959E0
2.680207375E0	-1.921853485E0	2.353106689E-1	9.652078400E0	9.844364345E0
2.690170375E0	-1.940714264E0	2.107617188E-1	9.545949097E0	9.743507403E0
2.700134375E0	-1.798360291E0	2.073188782E-1	9.621242523E0	9.790065809E0
2.710098375E0	-2.010020142E0	2.173480225E-1	9.540260925E0	9.752127955E0
2.720061375E0	-1.752106476E0	2.083666992E-1	9.653425598E0	9.813354144E0
2.730025375E0	-2.026635590E0	2.383044434E-1	9.616751862E0	9.830867570E0
2.739988375E0	-1.645827484E0	2.227368164E-1	9.643396454E0	9.785369434E0
2.749952375E0	-2.104473724E0	2.100132751E-1	9.662855988E0	9.891597498E0
2.759916375E0	-1.675316162E0	2.366578674E-1	9.519454193E0	9.668645165E0
2.769879375E0	-2.097737732E0	2.077679443E-1	9.654922485E0	9.882368102E0
2.779843375E0	-1.711540833E0	1.993853760E-1	9.443412323E0	9.599331375E0
2.789806375E0	-1.966909790E0	2.378553772E-1	9.736502838E0	9.936035267E0
2.799770375E0	-1.776505737E0	2.200424194E-1	9.547445984E0	9.713810587E0
2.809734375E0	-1.958377533E0	2.261796570E-1	9.675579529E0	9.874372842E0
2.819697375E0	-1.813628540E0	2.246827698E-1	9.589358826E0	9.761943122E0
2.829661375E0	-1.872156830E0	2.026785278E-1	9.682764587E0	9.864176592E0
2.839624375E0	-1.951791229E0	2.127076721E-1	9.524842987E0	9.725089587E0
2.849588375E0	-1.794767761E0	2.185455322E-1	9.616452484E0	9.784943119E0
2.859552375E0	-2.006277924E0	2.053729248E-1	9.599088593E0	9.808661017E0
2.869515375E0	-1.692829742E0	2.098635864E-1	9.609417114E0	9.759642029E0
2.879479375E0	-2.005828857E0	2.255809021E-1	9.596394196E0	9.806376380E0
2.889442375E0	-1.708547058E0	2.456391907E-1	9.574988708E0	9.729330934E0
2.899406375E0	-2.039209442E0	2.300715637E-1	9.674681396E0	9.889932669E0
2.909370375E0	-1.693727875E0	2.080673218E-1	9.528285828E0	9.679888271E0
2.919333375E0	-2.081721039E0	2.180964661E-1	9.745184784E0	9.967434726E0
2.929297375E0	-1.708097992E0	2.157014465E-1	9.528435516E0	9.682727366E0
2.939260375E0	-1.988315277E0	2.149530029E-1	9.703122253E0	9.907077465E0
2.949224375E0	-1.792672119E0	2.116598511E-1	9.506431274E0	9.676296233E0
2.959187375E0	-1.931134186E0	2.164498901E-1	9.731712799E0	9.923828082E0
2.969151375E0	-1.904938660E0	2.453398132E-1	9.601034546E0	9.791263824E0
2.979115375E0	-1.825154572E0	2.074685669E-1	9.677076416E0	9.849875145E0
2.989078375E0	-1.901346130E0	2.356100464E-1	9.584269409E0	9.773886090E0
2.999042375E0	-1.768422546E0	1.987866211E-1	9.610914001E0	9.774277588E0
3.009005375E0	-2.007176056E0	2.007325745E-1	9.609566803E0	9.819003179E0
3.018969375E0	-1.726809082E0	2.043251038E-1	9.494007111E0	9.651931898E0
3.028933375E0	-1.980681152E0	1.971400452E-1	9.699829102E0	9.901951657E0
3.038896375E0	-1.727707214E0	2.216889954E-1	9.532327423E0	9.690169469E0
3.048860375E0	-1.972448273E0	2.330653381E-1	9.710307312E0	9.911354082E0
3.058823375E0	-1.762434998E0	1.987866211E-1	9.511820068E0	9.675764272E0
3.068787375E0	-1.998344421E0	2.516267395E-1	9.770332489E0	9.975775328E0
3.078751375E0	-1.739832001E0	1.989363098E-1	9.506431274E0	9.666376085E0
3.088714375E0	-2.008223877E0	2.299218750E-1	9.701475677E0	9.909816221E0
3.098678375E0	-1.869312744E0	2.255809021E-1	9.623188477E0	9.805660270E0
3.108641375E0	-1.853445740E0	1.980381775E-1	9.626331940E0	9.805138798E0
3.118605375E0	-1.904339905E0	2.357597351E-1	9.573192444E0	9.763611355E0
3.128569375E0	-1.815873871E0	1.790277100E-1	9.673783264E0	9.844365469E0
3.138532375E0	-1.949845276E0	2.427951050E-1	9.652976532E0	9.850928991E0
3.148496375E0	-1.756746826E0	1.881587219E-1	9.635313263E0	9.795959616E0
3.158459375E0	-1.962119751E0	2.149530029E-1	9.652377777E0	9.852132534E0
3.168423375E0	-1.677561493E0	2.065704346E-1	9.567803650E0	9.715953406E0
3.178387375E0	-2.065854034E0	2.218386841E-1	9.693691864E0	9.913860361E0
3.188350375E0	-1.772613831E0	2.201921082E-1	9.479187927E0	9.646017215E0
3.198314375E0	-2.004930725E0	2.252815247E-1	9.711654510E0	9.919008635E0
3.208277375E0	-1.810335388E0	2.315684509E-1	9.561516724E0	9.734143014E0
3.218241375E0	-1.903591461E0	1.947450256E-1	9.727820892E0	9.914236501E0
3.228205375E0	-1.841770020E0	2.028282166E-1	9.507030029E0	9.685911215E0
3.238168375E0	-1.860181732E0	2.067201233E-1	9.696535950E0	9.875516124E0
3.248132375E0	-1.904639282E0	2.043251038E-1	9.591005402E0	9.780428628E0
3.258095375E0	-1.793869629E0	1.844165039E-1	9.646689606E0	9.813796311E0
3.268059375E0	-1.989063721E0	2.591111755E-1	9.646240540E0	9.852586951E0
3.278023375E0	-1.754052429E0	2.077679443E-1	9.651030579E0	9.811333175E0
3.287986375E0	-1.996847534E0	2.481838989E-1	9.567055206E0	9.776376662E0
3.297950375E0	-1.712139587E0	1.871109009E-1	9.588161316E0	9.741625628E0
3.307913375E0	-2.085014191E0	2.588117981E-1	9.690997467E0	9.916133300E0
3.317877375E0	-1.660496979E0	1.913021851E-1	9.543554077E0	9.688821970E0
3.327841375E0	-2.069745941E0	1.935475159E-1	9.708810425E0	9.928862411E0
3.337804375E0	-1.724114685E0	2.103126526E-1	9.596693573E0	9.752606338E0
3.347768375E0	-1.973346405E0	2.083666992E-1	9.714348907E0	9.914942633E0
3.357731375E0	-1.844165039E0	2.317181396E-1	9.531129913E0	9.710668124E0
3.367695375E0	-1.885329437E0	2.164498901E-1	9.665700073E0	9.850232259E0
3.377659375E0	-1.915117493E0	2.610571289E-1	9.575886841E0	9.769003768E0
3.387622375E0	-1.810485077E0	1.749861145E-1	9.599387970E0	9.770195789E0
3.397586375E0	-1.969304810E0	2.287243652E-1	9.541458435E0	9.745250399E0
3.407549375E0	-1.754800873E0	1.911524963E-1	9.592651978E0	9.753708902E0
3.417510000E0	-2.002386017E0	2.254312134E-1	9.599837036E0	9.809038695E0
3.427474000E0	-1.695973206E0	1.692979431E-1	9.580377502E0	9.730807777E0
3.437437000E0	-2.078577576E0	2.368075562E-1	9.739047546E0	9.961205232E0
3.447401000E0	-1.664239197E0	2.230361938E-1	9.574539642E0	9.720660811E0
3.457364000E0	-2.043999481E0	1.992356873E-1	9.681267700E0	9.896695055E0
3.467328000E0	-1.715283051E0	2.219883728E-1	9.470655670E0	9.627294200E0
3.477292000E0	-2.088157654E0	2.233355713E-1	9.751920776E0	9.975481943E0
3.487255000E0	-1.793270874E0	2.291734314E-1	9.495953064E0	9.666512581E0
3.497219000E0	-1.948498077E0	1.990859985E-1	9.672136688E0	9.868460270E0
3.507182000E0	-1.824555817E0	2.062710571E-1	9.580078125E0	9.754457881E0
3.517146000E0	-1.823657684E0	1.980381775E-1	9.688602448E0	9.860728363E0
3.527110000E0	-1.939666443E0	2.415975952E-1	9.565857697E0	9.763519282E0
3.537073000E0	-1.759740601E0	1.755848694E-1	9.639354858E0	9.800238727E0
3.547037000E0	-2.004631348E0	2.338137817E-1	9.605076141E0	9.814820600E0
3.557000000E0	-1.694626007E0	1.908531189E-1	9.569300537E0	9.720066614E0
3.566964000E0	-2.093097382E0	2.272274780E-1	9.597292328E0	9.825513167E0
3.576928000E0	-1.689686279E0	1.862127686E-1	9.546098785E0	9.696273353E0
3.586891000E0	-2.086511078E0	2.484832764E-1	9.644144897E0	9.870400358E0
3.596855000E0	-1.650318146E0	1.895059204E-1	9.532477112E0	9.676134681E0
3.606818000E0	-2.099833374E0	2.342628479E-1	9.715247040E0	9.942344006E0
3.616782000E0	-1.684147797E0	2.170486450E-1	9.508826294E0	9.659256773E0
3.626746000E0	-2.026186523E0	2.079176331E-1	9.670490112E0	9.882663638E0
3.636709000E0	-1.729054413E0	1.919009399E-1	9.444909210E0	9.603789102E0
3.646673000E0	-1.941462708E0	2.022294617E-1	9.689350891E0	9.884012085E0
3.656636000E0	-1.888622589E0	2.327659607E-1	9.604178009E0	9.790878944E0
3.666600000E0	-1.824256439E0	1.923500061E-1	9.633666687E0	9.806755015E0
3.676564000E0	-1.940414886E0	2.583627319E-1	9.596843262E0	9.794455668E0
3.686527000E0	-1.750160522E0	1.835183716E-1	9.604926453E0	9.764801739E0
3.696491000E0	-2.029928741E0	2.338137817E-1	9.553283844E0	9.769365987E0
3.706454000E0	-1.701212311E0	2.002835083E-1	9.490264893E0	9.643617814E0
3.716418000E0	-2.079924774E0	2.263293457E-1	9.688752136E0	9.912074959E0
3.726382000E0	-1.637295227E0	1.845661926E-1	9.516161041E0	9.657749288E0
3.736345000E0	-2.093247070E0	2.314187622E-1	9.718091125E0	9.943667988E0
3.746309000E0	-1.672472076E0	1.977388000E-1	9.467362518E0	9.615987548E0
3.756272000E0	-2.072590027E0	2.429447937E-1	9.723629608E0	9.945030133E0
3.766236000E0	-1.673070831E0	2.020797729E-1	9.391470337E0	9.541473541E0
3.776200000E0	-2.018552399E0	1.920506287E-1	9.683213654E0	9.893233237E0
3.786163000E0	-1.798809357E0	2.342628479E-1	9.456584930E0	9.628997494E0
3.796127000E0	-1.863774261E0	1.914518738E-1	9.623487854E0	9.804173948E0
3.806090000E0	-1.850302277E0	2.230361938E-1	9.502988434E0	9.684015326E0
3.816054000E0	-1.826651459E0	1.951940918E-1	9.638756104E0	9.812256392E0
3.826018000E0	-1.970951385E0	2.574645996E-1	9.600735168E0	9.804338487E0
3.835981000E0	-1.766626282E0	1.878593445E-1	9.553882599E0	9.717660843E0
3.845945000E0	-1.987417145E0	2.526745605E-1	9.625433807E0	9.831716398E0
3.855908000E0	-1.641486511E0	1.851649475E-1	9.532926178E0	9.674990726E0
3.865872000E0	-2.122586060E0	2.351609802E-1	9.635612640E0	9.869432771E0
3.875836000E0	-1.675914917E0	2.140548706E-1	9.435179443E0	9.585255418E0
3.885799000E0	-2.080224152E0	2.203417969E-1	9.700876923E0	9.923854901E0
3.895763000E0	-1.645977173E0	2.115101624E-1	9.489965515E0	9.633972331E0
3.905726000E0	-1.984423370E0	2.020797729E-1	9.730814667E0	9.933152895E0
3.915690000E0	-1.766177216E0	2.146536255E-1	9.469907227E0	9.635590330E0
3.925654000E0	-1.924398193E0	2.200424194E-1	9.659562836E0	9.851846591E0
3.935617000E0	-1.770518188E0	2.278262329E-1	9.444310455E0	9.611536788E0
3.945581000E0	-1.879192200E0	1.824705505E-1	9.622140656E0	9.805623367E0
3.955544000E0	-1.941163330E0	2.448907471E-1	9.522747345E0	9.721666706E0
3.965508000E0	-1.760489044E0	1.904040527E-1	9.605225830E0	9.767084449E0
3.975472000E0	-2.022743683E0	2.396516418E-1	9.528136139E0	9.743423587E0
3.985435000E0	-1.651515656E0	1.698966980E-1	9.579928436E0	9.722725837E0
3.995399000E0	-2.093546448E0	2.510279846E-1	9.636361084E0	9.864350294E0
4.005362000E0	-1.627715149E0	1.986369324E-1	9.526938629E0	9.667030200E0
4.015326000E0	-2.105521545E0	2.288740540E-1	9.660311279E0	9.889753198E0
4.025290000E0	-1.590442657E0	2.050735474E-1	9.409432983E0	9.545103042E0
4.035253000E0	-2.106419678E0	2.305206299E-1	9.689500580E0	9.918496111E0
4.045217000E0	-1.662143555E0	1.996847534E-1	9.398056641E0	9.545997267E0
4.055180000E0	-2.054777069E0	2.136058044E-1	9.670340424E0	9.888539839E0
4.065144000E0	-1.699266357E0	2.387535095E-1	9.513466644E0	9.666982827E0
4.075108000E0	-1.880988464E0	1.908531189E-1	9.693093109E0	9.875758023E0
4.085071000E0	-1.805245972E0	2.683918762E-1	9.494755554E0	9.668574365E0
4.095035000E0	-1.847458191E0	1.628613281E-1	9.658515015E0	9.834965067E0
4.104999000E0	-1.996847534E0	2.730322266E-1	9.525890808E0	9.736762417E0
4.114962000E0	-1.723964996E0	1.775308228E-1	9.574839020E0	9.730422126E0
4.124926000E0	-2.088457031E0	2.574645996E-1	9.576036530E0	9.804510003E0
4.134889000E0	-1.644629974E0	1.984872437E-1	9.549391937E0	9.692011727E0
4.144853000E0	-2.079775085E0	2.616558838E-1	9.601483612E0	9.827635309E0
4.154817000E0	-1.576072540E0	1.942959595E-1	9.496851196E0	9.628703870E0
4.164780000E0	-2.080523529E0	2.643502808E-1	9.680668945E0	9.905241565E0
4.174744000E0	-1.621727600E0	2.231858826E-1	9.473350067E0	9.613749208E0
4.184707000E0	-2.067650299E0	2.186952209E-1	9.659862213E0	9.881090190E0
4.194671000E0	-1.672023010E0	2.143542480E-1	9.464668121E0	9.613612814E0
4.204635000E0	-1.960024109E0	2.086660767E-1	9.661059723E0	9.860086765E0
4.214598000E0	-1.827699280E0	2.568658447E-1	9.467811584E0	9.646031356E0
4.224562000E0	-1.887425079E0	1.818717957E-1	9.611662445E0	9.796913072E0
4.234525000E0	-1.943408661E0	2.841091919E-1	9.519005127E0	9.719517162E0
4.244489000E0	-1.713786163E0	1.950444031E-1	9.680219879E0	9.832688454E0
4.254453000E0	-2.045047302E0	2.522254944E-1	9.513316956E0	9.733911632E0
4.264416000E0	-1.620979156E0	1.892065430E-1	9.583820343E0	9.721778896E0
4.274380000E0	-2.138003998E0	2.498304749E-1	9.602381744E0	9.840691618E0
4.284343000E0	-1.532513123E0	1.639091492E-1	9.517807617E0	9.641790524E0
4.294307000E0	-2.202519836E0	2.522254944E-1	9.658814392E0	9.909965025E0
4.304271000E0	-1.540746002E0	2.191442871E-1	9.512269135E0	9.638733659E0
4.314234000E0	-2.164199524E0	2.650987244E-1	9.653275909E0	9.896452531E0
4.324198000E0	-1.551373901E0	2.194436646E-1	9.435628510E0	9.564831513E0
4.334161000E0	-2.111808472E0	2.103126526E-1	9.651928711E0	9.882494335E0
4.344125000E0	-1.704505463E0	2.664459229E-1	9.528285828E0	9.683210372E0
4.354089000E0	-1.967658234E0	1.817221069E-1	9.634115753E0	9.834677839E0
4.364052000E0	-1.832788696E0	2.429447937E-1	9.534123688E0	9.711727502E0
4.374016000E0	-1.832788696E0	1.890568542E-1	9.613009644E0	9.787993222E0
4.383979000E0	-1.992506561E0	2.891986084E-1	9.506730652E0	9.717594657E0
4.393943000E0	-1.745669861E0	2.119592285E-1	9.588311005E0	9.748230501E0
4.403907000E0	-2.062860260E0	2.559677124E-1	9.632918243E0	9.854644885E0
4.413870125E0	-1.597777405E0	1.957928467E-1	9.551337891E0	9.686035462E0
4.423834125E0	-2.105072479E0	2.435435486E-1	9.661059723E0	9.890739031E0
4.433797125E0	-1.587897949E0	1.980381775E-1	9.451495514E0	9.586000546E0
4.443761125E0	-2.143392792E0	2.393522644E-1	9.684860229E0	9.922093521E0
4.453725125E0	-1.609453125E0	1.992356873E-1	9.477541351E0	9.615291170E0
4.463688125E0	-2.134411469E0	2.436932373E-1	9.737999725E0	9.972148082E0
4.473652125E0	-1.678309937E0	2.764750671E-1	9.513017578E0	9.663884630E0
4.483616125E0	-1.999392242E0	2.432441711E-1	9.735904083E0	9.942060419E0
4.493579125E0	-1.768721924E0	2.396516418E-1	9.431287537E0	9.598697555E0
4.503543125E0	-1.935924225E0	2.047741699E-1	9.666448517E0	9.860525442E0
4.513506125E0	-1.947599945E0	2.734812927E-1	9.528285828E0	9.729140166E0
4.523470125E0	-1.780996399E0	2.014810181E-1	9.596394196E0	9.762342154E0
4.533434125E0	-1.984722748E0	2.718347168E-1	9.557026062E0	9.764720459E0
4.543397125E0	-1.688039703E0	2.058219910E-1	9.570947113E0	9.720847153E0
4.553361125E0	-2.107018433E0	2.746788025E-1	9.673034821E0	9.903664865E0
4.563324125E0	-1.589694214E0	1.996847534E-1	9.470955048E0	9.605518789E0
4.573288125E0	-2.150577850E0	2.564167786E-1	9.761201477E0	9.998589347E0
4.583252125E0	-1.587448883E0	2.145039368E-1	9.446555786E0	9.581410236E0
4.593215125E0	-2.109712830E0	2.556683350E-1	9.724228363E0	9.953736574E0
4.603179125E0	-1.719773712E0	2.092648315E-1	9.434730377E0	9.592473648E0
4.613142125E0	-2.050136719E0	2.278262329E-1	9.717642059E0	9.934159881E0
4.623106125E0	-1.748813324E0	2.630030823E-1	9.545200653E0	9.707645140E0
4.633070125E0	-1.907333679E0	2.070195007E-1	9.709558868E0	9.897288126E0
4.643033125E0	-1.920057220E0	2.821632385E-1	9.593699799E0	9.788018781E0
4.652997125E0	-1.774709473E0	2.031275940E-1	9.654473419E0	9.818335477E0
4.662960125E0	-2.037562866E0	2.417472839E-1	9.506281586E0	9.725198906E0
4.672924125E0	-1.670526123E0	1.965412903E-1	9.532776489E0	9.680036859E0
4.682888125E0	-2.105371857E0	2.406994629E-1	9.670190735E0	9.899652304E0
4.692851125E0	-1.646875305E0	2.177970886E-1	9.524543610E0	9.668327922E0
4.702815125E0	-2.131866760E0	2.561174011E-1	9.760003967E0	9.993404297E0
4.712778125E0	-1.577719116E0	2.047741699E-1	9.489815826E0	9.622252049E0
4.722742125E0	-2.106120300E0	2.589614868E-1	9.782157898E0	1.000966617E1
4.732706125E0	-1.686542816E0	2.032772827E-1	9.411528625E0	9.563609120E0
4.742669125E0	-2.091750183E0	2.297721863E-1	9.732760620E0	9.957652503E0
4.752633125E0	-1.748364258E0	2.290237427E-1	9.456884308E0	9.619869556E0
4.762596125E0	-1.888472900E0	2.174977112E-1	9.735455017E0	9.919310437E0
4.772560125E0	-1.926493835E0	2.424957275E-1	9.511670380E0	9.707834779E0
4.782524125E0	-1.762285309E0	2.001338196E-1	9.693242798E0	9.854169625E0
4.792487125E0	-2.087558899E0	2.694396973E-1	9.603728943E0	9.831689047E0
4.802451125E0	-1.570534058E0	2.080673218E-1	9.610914001E0	9.740612772E0
4.812415125E0	-2.210303650E0	2.577639771E-1	9.681417389E0	9.933867683E0
4.822378125E0	-1.487606506E0	1.968406677E-1	9.517208862E0	9.634779909E0
4.832342125E0	-2.295476532E0	2.597099304E-1	9.706864471E0	9.977969715E0
4.842305125E0	-1.475182343E0	1.884580994E-1	9.438771973E0	9.555213014E0
4.852269125E0	-2.276166687E0	2.763253784E-1	9.787995758E0	1.005296730E1
4.862233125E0	-1.560205536E0	2.206411743E-1	9.493857422E0	9.623733817E0
4.872196125E0	-2.121987305E0	2.248324585E-1	9.757758636E0	9.988354888E0
4.882160125E0	-1.671274567E0	2.411485291E-1	9.511071625E0	9.659803038E0
4.892123125E0	-1.944606171E0	2.154020691E-1	9.734856262E0	9.929517494E0
4.902087125E0	-1.876497803E0	2.511776733E-1	9.504485321E0	9.691211248E0
4.912051125E0	-1.842967529E0	2.049238586E-1	9.683363342E0	9.859312791E0
4.922014125E0	-2.048190765E0	2.426454163E-1	9.595346375E0	9.814511412E0
4.931978125E0	-1.673220520E0	2.137554932E-1	9.658215637E0	9.804411640E0
4.941941125E0	-2.124981079E0	2.528242493E-1	9.617200928E0	9.852411805E0
4.951905125E0	-1.546284485E0	2.224374390E-1	9.553283844E0	9.680170780E0
4.961869125E0	-2.255509644E0	2.469863892E-1	9.674531708E0	9.937046331E0
4.971832125E0	-1.464853821E0	2.110610962E-1	9.463470612E0	9.578497769E0
4.981796125E0	-2.295476532E0	2.389031982E-1	9.778565369E0	1.004721991E1
4.991759125E0	-1.470691681E0	2.225871277E-1	9.446555786E0	9.562943860E0
5.001723125E0	-2.243983612E0	2.424957275E-1	9.780211945E0	1.003727116E1
5.011687125E0	-1.585053864E0	2.076182556E-1	9.450747070E0	9.584994589E0
5.021650125E0	-2.116897888E0	2.276765442E-1	9.769883423E0	9.999185736E0
5.031614125E0	-1.721569977E0	2.415975952E-1	9.540859680E0	9.697947000E0
5.041578125E0	-1.910028076E0	2.077679443E-1	9.723030853E0	9.911039489E0
5.051541125E0	-1.873054962E0	2.395019531E-1	9.528734894E0	9.714035452E0
5.061505125E0	-1.741328888E0	2.209405518E-1	9.627679138E0	9.786380670E0
5.071468125E0	-2.113305359E0	2.640509033E-1	9.587412872E0	9.821113379E0
5.081432125E0	-1.613644409E0	2.028282166E-1	9.549841003E0	9.687334554E0
5.091396125E0	-2.247875519E0	2.429447937E-1	9.709708557E0	9.969473747E0
5.101359125E0	-1.507964172E0	2.163002014E-1	9.506580963E0	9.627867019E0
5.111323125E0	-2.233355713E0	2.529739380E-1	9.790839844E0	1.004551733E1
5.121286125E0	-1.429976349E0	1.884580994E-1	9.392518158E0	9.502617858E0
5.131250125E0	-2.217638397E0	2.438429260E-1	9.789792023E0	1.004078718E1
5.141214125E0	-1.558558960E0	2.034269714E-1	9.440568237E0	9.570518126E0
5.151177125E0	-2.135010223E0	2.308200073E-1	9.728569336E0	9.962761056E0
5.161141125E0	-1.750459900E0	2.433938599E-1	9.501790924E0	9.664749412E0
5.171104125E0	-1.945204926E0	2.276765442E-1	9.709409180E0	9.904962667E0
5.181068125E0	-1.863624573E0	2.342628479E-1	9.504036255E0	9.687862549E0
5.191032125E0	-1.793420563E0	2.034269714E-1	9.687105560E0	9.853819259E0
5.200995125E0	-2.017354889E0	2.627037048E-1	9.558972015E0	9.773058885E0
5.210959125E0	-1.640887756E0	2.176473999E-1	9.643246765E0	9.784277755E0
5.220922125E0	-2.119592285E0	2.324665833E-1	9.564809875E0	9.799607141E0
5.230886125E0	-1.534159698E0	2.246827698E-1	9.548942871E0	9.674008388E0
5.240850125E0	-2.292482758E0	2.398013306E-1	9.687105560E0	9.957559742E0
5.250813125E0	-1.512903900E0	2.314187622E-1	9.469009094E0	9.591901067E0
5.260777125E0	-2.256856842E0	2.598596191E-1	9.789342957E0	1.004948583E1
5.270741125E0	-1.500180359E0	2.044747925E-1	9.454339600E0	9.574804871E0
5.280704125E0	-2.159708862E0	2.478845215E-1	9.780211945E0	1.001889888E1
5.290668125E0	-1.626817017E0	1.971400452E-1	9.405840454E0	9.547524938E0
5.300631125E0	-2.047741699E0	2.209405518E-1	9.734407196E0	9.949911771E0
5.310595125E0	-1.787283325E0	2.433938599E-1	9.490564270E0	9.660457154E0
5.320559125E0	-1.845961304E0	2.001338196E-1	9.686955872E0	9.863302730E0
5.330522125E0	-1.998643799E0	2.658471680E-1	9.539961548E0	9.750698338E0
5.340486125E0	-1.672023010E0	2.231858826E-1	9.664951630E0	9.811053098E0
5.350449125E0	-2.104922791E0	2.447410583E-1	9.536219330E0	9.768831928E0
5.360413125E0	-1.556014252E0	2.198927307E-1	9.572444000E0	9.700578194E0
5.370377125E0	-2.251168671E0	2.627037048E-1	9.700727234E0	9.961971817E0
5.380340125E0	-1.448537750E0	2.148033142E-1	9.493707733E0	9.605981918E0
5.390304125E0	-2.268083496E0	2.387535095E-1	9.720785522E0	9.984732203E0
5.400267125E0	-1.457070007E0	2.113604736E-1	9.457483063E0	9.571400741E0
5.410231125E0	-2.231409760E0	2.436932373E-1	9.741741943E0	9.997005152E0
5.420195417E0	-1.618434448E0	2.296224976E-1	9.396260376E0	9.537387777E0
5.430158417E0	-2.091450806E0	2.291734314E-1	9.706864471E0	9.932265844E0
5.440122417E0	-1.751807098E0	2.445913696E-1	9.504485321E0	9.667672640E0
5.450086417E0	-1.853146362E0	2.231858826E-1	9.761201477E0	9.938059049E0
5.460049417E0	-1.916913757E0	2.329156494E-1	9.396859131E0	9.593214768E0
5.470013417E0	-1.709145813E0	2.058219910E-1	9.696835327E0	9.848459649E0
5.479976417E0	-2.122735748E0	2.430944824E-1	9.497000885E0	9.734378655E0
5.489940417E0	-1.552721100E0	2.083666992E-1	9.635612640E0	9.762140669E0
5.499904417E0	-2.269580383E0	2.450404358E-1	9.573791199E0	9.842180543E0
5.509867417E0	-1.426683197E0	2.392025757E-1	9.601782990E0	9.710143119E0
5.519831417E0	-2.340682526E0	2.420466614E-1	9.698332214E0	9.979730909E0
5.529794417E0	-1.384770355E0	2.067201233E-1	9.405690765E0	9.509329152E0
5.539758417E0	-2.364483032E0	2.492317200E-1	9.788893890E0	1.007349691E1
5.549722417E0	-1.437909851E0	2.116598511E-1	9.446106720E0	9.557265132E0
5.559685417E0	-2.230661316E0	2.195933533E-1	9.748328247E0	1.000269837E1
5.569649417E0	-1.590742035E0	2.362088013E-1	9.429042206E0	9.565202127E0
5.579613417E0	-2.026036835E0	2.097138977E-1	9.709858246E0	9.921197122E0
5.589576417E0	-1.783541107E0	2.435435486E-1	9.436077576E0	9.606242364E0
5.599540417E0	-1.840123444E0	2.191442871E-1	9.681118011E0	9.856882086E0
5.609503417E0	-1.994452515E0	2.430944824E-1	9.550439758E0	9.759499748E0
5.619467417E0	-1.674567719E0	2.131567383E-1	9.660311279E0	9.806692962E0
5.629431417E0	-2.149080963E0	2.505789185E-1	9.523645477E0	9.766327967E0
5.639394417E0	-1.532513123E0	2.233355713E-1	9.578281860E0	9.702677911E0
5.649358417E0	-2.294728088E0	2.451901245E-1	9.604028320E0	9.877411360E0
5.659321417E0	-1.439706116E0	2.371069336E-1	9.545050964E0	9.655929334E0
5.669285417E0	-2.349813538E0	2.234852600E-1	9.713450775E0	9.996134017E0
5.679249417E0	-1.395697632E0	2.429447937E-1	9.483828278E0	9.589055889E0
5.689212417E0	-2.286046143E0	2.389031982E-1	9.709409180E0	9.977760687E0
5.699176417E0	-1.525477753E0	2.008822632E-1	9.364975433E0	9.490532173E0
5.709140417E0	-2.179318085E0	2.445913696E-1	9.740245056E0	9.984068610E0
5.719103417E0	-1.662143555E0	2.302212524E-1	9.431287537E0	9.579400170E0
5.729067417E0	-1.962568817E0	2.360591125E-1	9.744436340E0	9.942909024E0
5.739030417E0	-1.814826050E0	2.339634705E-1	9.484726410E0	9.659625643E0
5.748994417E0	-1.805695038E0	2.131567383E-1	9.702224121E0	9.871125734E0
5.758958417E0	-2.069895630E0	2.312690735E-1	9.458530884E0	9.685130860E0
5.768921417E0	-1.625170441E0	2.290237427E-1	9.609267426E0	9.748417887E0
5.778885417E0	-2.211650848E0	2.221380615E-1	9.595645752E0	9.849729041E0
5.788848417E0	-1.520987091E0	2.333647156E-1	9.546697540E0	9.669916998E0
5.798812417E0	-2.270777893E0	2.450404358E-1	9.704020386E0	9.969176932E0
5.808776417E0	-1.437909851E0	2.269281006E-1	9.430239716E0	9.541933881E0
5.818739417E0	-2.259401550E0	2.348616028E-1	9.789492645E0	1.004958813E1
5.828703417E0	-1.491199036E0	2.344125366E-1	9.383387146E0	9.504029573E0
5.838666417E0	-2.237097931E0	2.369572449E-1	9.782008209E0	1.003735227E1
5.848630417E0	-1.597178650E0	2.116598511E-1	9.400601349E0	9.537666657E0
5.858594417E0	-2.046095123E0	2.423460388E-1	9.689799957E0	9.906435286E0
5.868557417E0	-1.742227020E0	2.194436646E-1	9.414971466E0	9.577327300E0
5.878521417E0	-1.895059204E0	2.085163879E-1	9.650132446E0	9.836655158E0
5.888485417E0	-1.964814148E0	2.456391907E-1	9.557624817E0	9.760585299E0
5.898448417E0	-1.724414063E0	2.103126526E-1	9.657616882E0	9.812614286E0
5.908412417E0	-2.071841583E0	2.315684509E-1	9.545200653E0	9.770210182E0
5.918375417E0	-1.587448883E0	2.475851440E-1	9.621541901E0	9.754760935E0
5.928339417E0	-2.220183105E0	2.133064270E-1	9.587412872E0	9.843434271E0
5.938303417E0	-1.540296936E0	2.534230042E-1	9.495953064E0	9.623401813E0
5.948266417E0	-2.280507660E0	2.142045593E-1	9.679172058E0	9.946505442E0
5.958230417E0	-1.491797791E0	2.059716797E-1	9.496102753E0	9.614772617E0
5.968193417E0	-2.186652832E0	2.350112915E-1	9.745334473E0	9.990406643E0
5.978157417E0	-1.535656586E0	2.176473999E-1	9.372459869E0	9.499927134E0
5.988121417E0	-2.139650574E0	2.161505127E-1	9.775870972E0	1.000961932E1
5.998084417E0	-1.683698730E0	2.233355713E-1	9.393266602E0	9.545584196E0
6.008048417E0	-1.983375549E0	2.359094238E-1	9.759854279E0	9.962137691E0
6.018011417E0	-1.827848969E0	2.122586060E-1	9.440717926E0	9.618380348E0
6.027975417E0	-1.799557800E0	2.390528870E-1	9.666149139E0	9.835140759E0
6.037939417E0	-2.019151154E0	1.960922241E-1	9.482630768E0	9.697201133E0
6.047902417E0	-1.701960754E0	2.043251038E-1	9.593999176E0	9.745934504E0
6.057866417E0	-2.149080963E0	2.371069336E-1	9.650731201E0	9.889963670E0
6.067830417E0	-1.534459076E0	2.097138977E-1	9.570348358E0	9.694849781E0
6.077793417E0	-2.196382599E0	2.191442871E-1	9.756860504E0	1.000342180E1
6.087757417E0	-1.480571136E0	1.857637024E-1	9.444909210E0	9.562055691E0
6.097720417E0	-2.236648865E0	2.324665833E-1	9.717043304E0	9.973844266E0
6.107684417E0	-1.566791840E0	1.907034302E-1	9.368118896E0	9.500150321E0
6.117648417E0	-2.159858551E0	2.092648315E-1	9.691895599E0	9.931848823E0
6.127611417E0	-1.661993866E0	2.104623413E-1	9.465117188E0	9.612229782E0
6.137575417E0	-1.999691620E0	2.386038208E-1	9.748627625E0	9.954468289E0
6.147539417E0	-1.745819550E0	2.116598511E-1	9.441166992E0	9.603557672E0
6.157502417E0	-1.871109009E0	2.389031982E-1	9.714348907E0	9.895791952E0
6.167466417E0	-1.900747375E0	1.877096558E-1	9.458381195E0	9.649303101E0
6.177429417E0	-1.776056671E0	2.180964661E-1	9.671388245E0	9.835532215E0
6.187393417E0	-2.078128510E0	1.868115234E-1	9.525741119E0	9.751577335E0
6.197357417E0	-1.638642426E0	2.266287231E-1	9.622889099E0	9.764041386E0
6.207320417E0	-2.135908356E0	2.308200073E-1	9.582622833E0	9.820490962E0
6.217284417E0	-1.560504913E0	1.927990723E-1	9.552535400E0	9.681078434E0
6.227247417E0	-2.256108398E0	2.392025757E-1	9.759405212E0	1.001964236E1
6.237211417E0	-1.496887207E0	2.068698120E-1	9.501940613E0	9.621348234E0
6.247175417E0	-2.174677734E0	2.076182556E-1	9.804311829E0	1.004474285E1
6.257138417E0	-1.550625458E0	1.767823792E-1	9.362580414E0	9.491765027E0
6.267102417E0	-2.108964386E0	2.215393066E-1	9.696685638E0	9.925851239E0
6.277065417E0	-1.713337097E0	1.939965820E-1	9.372908936E0	9.530193104E0
6.287029417E0	-1.929337921E0	2.532733154E-1	9.671088867E0	9.864910140E0
6.296993417E0	-1.850002899E0	1.911524963E-1	9.498946838E0	9.679309947E0
6.306956417E0	-1.806742859E0	2.278262329E-1	9.698930969E0	9.868408509E0
6.316920417E0	-2.014061737E0	2.161505127E-1	9.517657928E0	9.730826181E0
6.326884417E0	-1.688339081E0	1.806742859E-1	9.602681122E0	9.751646875E0
6.336847417E0	-2.145338745E0	1.905537415E-1	9.646689606E0	9.884199988E0
6.346811417E0	-1.547332306E0	1.859133911E-1	9.538913727E0	9.665385463E0
6.356774417E0	-2.240840149E0	1.992356873E-1	9.685458984E0	9.943298003E0
6.366738417E0	-1.495839386E0	1.960922241E-1	9.495503998E0	9.614602634E0
6.376702417E0	-2.182162170E0	2.154020691E-1	9.701924744E0	9.946636292E0
6.386665417E0	-1.550625458E0	1.842668152E-1	9.422455902E0	9.550972139E0
6.396629417E0	-2.178120575E0	2.350112915E-1	9.781559143E0	1.002388841E1
6.406593417E0	-1.656305695E0	1.775308228E-1	9.473948822E0	9.619281264E0
6.416559500E0	-2.017354889E0	2.165995789E-1	9.754166107E0	9.962950997E0
6.426523500E0	-1.769620056E0	1.713935852E-1	9.464368744E0	9.629912078E0
6.436486500E0	-1.887574768E0	2.107617188E-1	9.672585754E0	9.857295480E0
6.446450500E0	-1.938019867E0	1.784289551E-1	9.418713684E0	9.617688150E0
6.456414500E0	-1.740879822E0	2.192939758E-1	9.659562836E0	9.817632432E0
6.466377500E0	-2.064955902E0	1.628613281E-1	9.524842987E0	9.747471499E0
6.476341500E0	-1.644929352E0	2.318678284E-1	9.638756104E0	9.780857554E0
6.486304500E0	-2.157613220E0	1.904040527E-1	9.622290344E0	9.863063418E0
6.496268500E0	-1.547182617E0	1.713935852E-1	9.497300262E0	9.624025254E0
6.506232500E0	-2.217788086E0	1.922003174E-1	9.764045563E0	1.001459488E1
6.516195500E0	-1.520238647E0	1.396595764E-1	9.416318665E0	9.539270807E0
6.526159500E0	-2.222428436E0	2.409988403E-1	9.806557159E0	1.005812268E1
6.536123500E0	-1.569336548E0	1.511856079E-1	9.426198120E0	9.557137923E0
6.546086500E0	-2.070344696E0	2.227368164E-1	9.753717041E0	9.973511667E0
6.556050500E0	-1.689835968E0	1.483415222E-1	9.391021271E0	9.542999073E0
6.566013500E0	-1.971999207E0	2.154020691E-1	9.711804199E0	9.912331700E0
6.575977500E0	-1.885928192E0	1.643582153E-1	9.496102753E0	9.682959582E0
6.585941500E0	-1.845661926E0	1.923500061E-1	9.689799957E0	9.865885144E0
6.595904500E0	-1.990261230E0	1.692979431E-1	9.561516724E0	9.767927294E0
6.605868500E0	-1.711241455E0	1.869612122E-1	9.600286102E0	9.753399154E0
6.615832500E0	-2.105222168E0	1.857637024E-1	9.563013611E0	9.793758107E0
6.625795500E0	-1.598226471E0	1.881587219E-1	9.540260925E0	9.675035405E0
6.635759500E0	-2.177671509E0	1.637594604E-1	9.664053497E0	9.907724278E0
6.645722500E0	-1.541943512E0	1.622625732E-1	9.492809601E0	9.618594131E0
6.655686500E0	-2.203268280E0	1.851649475E-1	9.706265717E0	9.954911920E0
6.665650500E0	-1.577120361E0	1.413061523E-1	9.377848663E0	9.510589972E0
6.675613500E0	-2.134411469E0	1.974394226E-1	9.777816925E0	1.001001491E1
6.685577500E0	-1.698368225E0	1.380130005E-1	9.452693024E0	9.605045946E0
6.695540500E0	-2.046693878E0	2.049238586E-1	9.777068481E0	9.991096922E0
6.705504500E0	-1.803898773E0	1.556762695E-1	9.456734619E0	9.628505364E0
6.715468500E0	-1.864073639E0	2.179467773E-1	9.739346924E0	9.918525588E0
6.725431500E0	-1.930086365E0	1.278341675E-1	9.379495239E0	9.576873493E0
6.735395500E0	-1.780697021E0	1.609153748E-1	9.603130188E0	9.768156686E0
6.745359500E0	-2.088606720E0	1.407073975E-1	9.535321198E0	9.762398626E0
6.755322500E0	-1.651066589E0	1.725910950E-1	9.582323456E0	9.725056883E0
6.765286500E0	-2.076182556E0	1.459465027E-1	9.691895599E0	9.912854014E0
6.775249500E0	-1.577719116E0	1.648072815E-1	9.505383453E0	9.636839401E0
6.785213500E0	-2.219883728E0	1.842668152E-1	9.779762878E0	1.003023429E1
6.795177500E0	-1.613045654E0	1.378633118E-1	9.350755005E0	9.489865212E0
6.805140500E0	-2.200124817E0	1.763333130E-1	9.759554901E0	1.000602591E1
6.815104500E0	-1.612596588E0	9.684860229E-2	9.400002594E0	9.537814014E0
6.825067500E0	-2.070344696E0	1.800755310E-1	9.724976807E0	9.944542636E0
6.835031500E0	-1.759141846E0	8.427474976E-2	9.405840454E0	9.569300754E0
6.844995500E0	-1.942959595E0	1.598675537E-1	9.724527740E0	9.918018421E0
6.854958500E0	-1.869312744E0	1.046324158E-1	9.476643219E0	9.659815981E0
6.864922500E0	-1.822310486E0	1.734892273E-1	9.707163849E0	9.878256122E0
6.874886500E0	-2.061063995E0	1.296304321E-1	9.521400146E0	9.742784489E0
6.884849500E0	-1.670975189E0	1.517843628E-1	9.611213379E0	9.756568003E0
6.894813500E0	-2.154020691E0	8.741821289E-2	9.517807617E0	9.758898960E0
6.904776500E0	-1.568588104E0	1.061293030E-1	9.532477112E0	9.661255196E0
6.914740500E0	-2.189047852E0	1.261875916E-1	9.652078400E0	9.898003397E0
6.924704500E0	-1.604663086E0	9.610015869E-2	9.498048706E0	9.633125561E0
6.934667500E0	-2.177970886E0	1.396595764E-1	9.742191010E0	9.983654023E0
6.944631500E0	-1.569785614E0	6.631210327E-2	9.400451660E0	9.530850727E0
6.954595500E0	-2.157613220E0	1.751358032E-1	9.747879181E0	9.985345056E0
6.964558500E0	-1.715582428E0	7.289840698E-2	9.390422516E0	9.546128654E0
6.974522500E0	-2.081421661E0	1.600172424E-1	9.735754395E0	9.957049527E0
6.984485500E0	-1.806293793E0	6.017486572E-2	9.441017303E0	9.612446411E0
6.994449500E0	-1.904339905E0	1.378633118E-1	9.746981049E0	9.932228165E0
7.004413500E0	-1.911824341E0	7.080276489E-2	9.430239716E0	9.622344124E0
7.014376500E0	-1.763632507E0	1.095721436E-1	9.596094818E0	9.757430063E0
7.024340500E0	-2.089055786E0	6.346801758E-2	9.562714233E0	9.788446546E0
7.034303500E0	-1.681154022E0	1.062789917E-1	9.539063416E0	9.686656023E0
7.044267500E0	-2.174827423E0	7.753875732E-2	9.624535675E0	9.867500876E0
7.054231500E0	-1.576222229E0	9.370513916E-2	9.463919678E0	9.594739852E0
7.064194500E0	-2.198029175E0	1.196012878E-1	9.733658752E0	9.979466390E0
7.074158500E0	-1.584754486E0	2.784210205E-2	9.417665863E0	9.550112684E0
7.084122500E0	-2.192191315E0	1.329235840E-1	9.753267975E0	9.997480064E0
7.094085500E0	-1.677711182E0	3.562591553E-2	9.438622284E0	9.586635209E0
7.104049500E0	-2.065255280E0	1.242416382E-1	9.736203461E0	9.953611062E0
7.114012500E0	-1.726809082E0	1.496887207E-2	9.435478821E0	9.592202784E0
7.123976500E0	-2.012415161E0	1.225950623E-1	9.661359100E0	9.869483472E0
7.133940500E0	-1.882635040E0	4.879852295E-2	9.464817810E0	9.650361245E0
7.143903500E0	-1.882335663E0	8.891510010E-2	9.664502563E0	9.846507159E0
7.153867500E0	-1.919009399E0	5.942642212E-2	9.510472870E0	9.702330791E0
7.163831500E0	-1.812281342E0	9.759704590E-2	9.742640076E0	9.910243412E0
7.173794500E0	-2.022144928E0	4.296066284E-2	9.517208862E0	9.729757461E0
7.183758500E0	-1.744322662E0	8.786727905E-2	9.514065399E0	9.673046192E0
7.193721500E0	-2.112407227E0	7.080276489E-2	9.618997192E0	9.848471166E0
7.203685500E0	-1.642234955E0	1.975891113E-2	9.435927887E0	9.577789993E0
7.213649500E0	-2.214944000E0	9.160949707E-2	9.692344666E0	9.942631158E0
7.223612500E0	-1.659000092E0	3.682342529E-2	9.417216797E0	9.562301473E0
7.233576500E0	-2.093696136E0	1.140628052E-1	9.784852295E0	1.000699297E1
7.243540500E0	-1.690734100E0	-1.945953369E-3	9.403744812E0	9.554527831E0
7.253503500E0	-2.024390259E0	1.451980591E-1	9.741292877E0	9.950478648E0
7.263467500E0	-1.841919708E0	3.068618774E-2	9.415719910E0	9.594237399E0
7.273430500E0	-1.931732941E0	1.215472412E-1	9.723779297E0	9.914547377E0
7.283394500E0	-1.892514496E0	-8.083190918E-3	9.464368744E0	9.651733118E0
7.293358500E0	-1.844165039E0	8.801696777E-2	9.623038788E0	9.798549239E0
7.303321500E0	-2.049687653E0	4.715194702E-2	9.558522949E0	9.775929815E0
7.313285500E0	-1.795366516E0	4.565505981E-2	9.568402405E0	9.735489196E0
7.323248500E0	-2.084714813E0	3.742218018E-2	9.629325714E0	9.852479382E0
7.333212500E0	-1.671573944E0	5.388793945E-2	9.576036530E0	9.720984465E0
7.343176500E0	-2.067201233E0	8.981323242E-2	9.695787506E0	9.914115327E0
7.353139500E0	-1.660796356E0	1.392105103E-2	9.385782166E0	9.531597200E0
7.363103500E0	-2.121238861E0	7.903564453E-2	9.668693848E0	9.898966697E0
7.373067500E0	-1.691781921E0	-1.646575928E-2	9.448052673E0	9.598338216E0
7.383030500E0	-2.070045319E0	7.080276489E-2	9.677824860E0	9.896989172E0
7.392994500E0	-1.786834259E0	-1.047821045E-3	9.464219055E0	9.631418384E0
7.402957500E0	-2.001637573E0	1.185534668E-1	9.683962097E0	9.889374591E0
7.412917417E0	-1.862576752E0	-1.736389160E-2	9.402996368E0	9.585709904E0
7.422881417E0	-1.942660217E0	1.413061523E-1	9.685458984E0	9.879373051E0
7.432844417E0	-1.873054962E0	2.649490356E-2	9.534722443E0	9.716993822E0
7.442808417E0	-1.877246246E0	6.616241455E-2	9.610015869E0	9.791876017E0
7.452772417E0	-1.995051270E0	4.281097412E-2	9.500144348E0	9.707461305E0
7.462735417E0	-1.741179199E0	5.523513794E-2	9.545500031E0	9.703160658E0
7.472699417E0	-2.029629364E0	9.340576172E-2	9.589508514E0	9.802387135E0
7.482662417E0	-1.717528381E0	3.577560425E-2	9.436975708E0	9.592064123E0
7.492626417E0	-2.088007965E0	1.339714050E-1	9.713450775E0	9.936239307E0
7.502590417E0	-1.783391418E0	1.676513672E-2	9.477092285E0	9.643445660E0
7.512553417E0	-2.030677185E0	1.547781372E-1	9.712402954E0	9.923627222E0
7.522517417E0	-1.747615814E0	-1.422042847E-2	9.419013062E0	9.579779241E0
7.532481417E0	-2.002086639E0	1.076261902E-1	9.665849762E0	9.871605033E0
7.542444417E0	-1.927691345E0	1.317260742E-2	9.501940613E0	9.695516637E0
7.552408417E0	-1.879940643E0	1.237925720E-1	9.628427582E0	9.811020289E0
7.562371417E0	-1.952689362E0	5.957611084E-2	9.483079834E0	9.682218144E0
7.572335417E0	-1.712738342E0	1.115180969E-1	9.665849762E0	9.817054575E0
7.582299417E0	-2.035616913E0	5.373825073E-2	9.524543610E0	9.739792348E0
7.592262417E0	-1.735191650E0	9.250762939E-2	9.539811859E0	9.696775651E0
7.602226417E0	-2.119442596E0	1.106199646E-1	9.593400421E0	9.825355227E0
7.612190417E0	-1.655407562E0	6.152206421E-2	9.527687073E0	9.670624598E0
7.622153417E0	-2.116748199E0	1.281335449E-1	9.653275909E0	9.883459765E0
7.632117417E0	-1.678309937E0	4.954696655E-2	9.445807343E0	9.593875937E0
7.642080417E0	-2.099234619E0	1.788780212E-1	9.654174042E0	9.881389566E0
7.652044417E0	-1.760489044E0	5.254074097E-2	9.407187653E0	9.570645837E0
7.662008417E0	-2.012564850E0	2.020797729E-1	9.642498322E0	9.852361513E0
7.671971417E0	-1.820663910E0	5.718109131E-2	9.492659912E0	9.665851176E0
7.681935417E0	-1.928439789E0	1.718426514E-1	9.693242798E0	9.884703630E0
7.691899417E0	-1.892215118E0	7.723937988E-2	9.445358276E0	9.633339865E0
7.701862417E0	-1.805844727E0	1.892065430E-1	9.557175751E0	9.728128423E0
7.711826417E0	-1.941313019E0	7.080276489E-2	9.506880341E0	9.703323301E0
7.721789417E0	-1.809736633E0	1.589694214E-1	9.523495789E0	9.695225113E0
7.731753417E0	-2.006876678E0	1.222956848E-1	9.624535675E0	9.832303758E0
7.741717417E0	-1.770218811E0	1.413061523E-1	9.481283569E0	9.646158831E0
7.751680417E0	-1.971699829E0	1.595681763E-1	9.696535950E0	9.896255435E0
7.761644417E0	-1.701811066E0	8.502319336E-2	9.398805084E0	9.552011666E0
7.771607417E0	-2.053130493E0	2.097138977E-1	9.696835327E0	9.914027441E0
7.781571417E0	-1.803599396E0	7.723937988E-2	9.467811584E0	9.638381239E0
7.791535417E0	-2.000589752E0	2.433938599E-1	9.682614899E0	9.890127967E0
7.801498417E0	-1.766177216E0	8.891510010E-2	9.438023529E0	9.602269314E0
7.811462417E0	-1.922302551E0	2.171983337E-1	9.582173767E0	9.775503891E0
7.821426417E0	-1.849703522E0	1.375639343E-1	9.472002869E0	9.651899569E0
7.831389417E0	-1.929038544E0	2.055226135E-1	9.546547852E0	9.741663366E0
7.841353417E0	-1.885179749E0	1.537303162E-1	9.509125671E0	9.695411633E0
7.851316417E0	-1.844614105E0	1.878593445E-1	9.588161316E0	9.765793862E0
7.861280417E0	-1.876647491E0	2.002835083E-1	9.563163300E0	9.747615687E0
7.871244417E0	-1.810185699E0	1.411564636E-1	9.452393646E0	9.625198339E0
7.881207417E0	-1.976489868E0	2.418969727E-1	9.599238281E0	9.803591277E0
7.891171417E0	-1.783690796E0	1.315763855E-1	9.444310455E0	9.612172760E0
7.901135417E0	-2.000140686E0	2.682421875E-1	9.640552368E0	9.849505906E0
7.911098417E0	-1.733545074E0	1.366658020E-1	9.434580688E0	9.593496174E0
7.921062417E0	-1.973645782E0	2.658471680E-1	9.632918243E0	9.836618640E0
7.931025417E0	-1.799857178E0	1.212478638E-1	9.405990143E0	9.577412880E0
7.940989417E0	-1.949246521E0	2.677931213E-1	9.628128204E0	9.827111879E0
7.950953417E0	-1.836381226E0	1.531315613E-1	9.488169250E0	9.665459172E0
7.960916417E0	-1.930834808E0	2.707868958E-1	9.639953613E0	9.835148919E0
7.970880417E0	-1.808988190E0	1.978884888E-1	9.544452209E0	9.716386474E0
7.980844417E0	-1.916165314E0	2.207908630E-1	9.545200653E0	9.738136045E0
7.990807417E0	-1.893412628E0	2.519261169E-1	9.549990692E0	9.739137558E0
8.000771417E0	-1.816772003E0	1.492396545E-1	9.459279327E0	9.633322292E0
8.010734417E0	-1.958976288E0	3.008743286E-1	9.600435791E0	9.802881252E0
8.020698417E0	-1.806892548E0	1.637594604E-1	9.472751312E0	9.644931066E0
8.030662417E0	-1.970801697E0	3.159928894E-1	9.665550385E0	9.869487072E0
8.040625417E0	-1.780098267E0	1.764830017E-1	9.378297729E0	9.547374738E0
8.050589417E0	-1.899400177E0	3.011737061E-1	9.614207153E0	9.804662453E0
8.060553417E0	-1.835034027E0	1.618135071E-1	9.446555786E0	9.624497375E0
8.070516417E0	-1.941762085E0	3.019221497E-1	9.597142639E0	9.796261727E0
8.080480417E0	-1.863175507E0	2.154020691E-1	9.478140106E0	9.661933600E0
8.090443417E0	-1.891167297E0	2.788700867E-1	9.570647736E0	9.759691611E0
8.100407417E0	-1.836081848E0	2.398013306E-1	9.486672363E0	9.665694686E0
8.110371417E0	-1.881736908E0	2.583627319E-1	9.562115479E0	9.748935199E0
8.120334417E0	-1.923649750E0	2.730322266E-1	9.530680847E0	9.726708198E0
8.130298417E0	-1.870659943E0	2.472857666E-1	9.562265167E0	9.746662711E0
8.140262417E0	-1.896855469E0	3.022215271E-1	9.622739410E0	9.812569097E0
8.150225417E0	-1.806593170E0	1.883084106E-1	9.468859406E0	9.641500785E0
8.160189417E0	-1.933978271E0	3.373983765E-1	9.581874390E0	9.780921554E0
8.170152417E0	-1.810485077E0	1.835183716E-1	9.456734619E0	9.630231818E0
8.180116417E0	-2.001188507E0	3.504212952E-1	9.601034546E0	9.813634132E0
8.190080417E0	-1.760039978E0	1.880090332E-1	9.512119446E0	9.675407199E0
8.200043417E0	-1.978286133E0	3.736230469E-1	9.657467194E0	9.865084024E0
8.210007417E0	-1.748963013E0	2.017803955E-1	9.445957031E0	9.608625874E0
8.219971417E0	-1.986069946E0	3.125500488E-1	9.555978241E0	9.765187223E0
8.229934417E0	-1.847158813E0	2.520758057E-1	9.514514465E0	9.695438278E0
8.239898417E0	-1.947001190E0	2.721340942E-1	9.578581238E0	9.778245708E0
8.249861417E0	-1.859283600E0	2.803669739E-1	9.532028046E0	9.715714066E0
8.259825417E0	-1.849703522E0	2.680924988E-1	9.569001160E0	9.749823583E0
8.269789417E0	-1.908381500E0	3.159928894E-1	9.589508514E0	9.782660426E0
8.279752417E0	-1.854643250E0	2.308200073E-1	9.445058899E0	9.628193863E0
8.289716417E0	-1.957778778E0	3.671864319E-1	9.635313263E0	9.839054085E0
8.299680417E0	-1.812431030E0	2.092648315E-1	9.516610107E0	9.689920843E0
8.309643417E0	-1.947899323E0	3.847000122E-1	9.665999451E0	9.867818971E0
8.319607417E0	-1.776655426E0	1.986369324E-1	9.521849213E0	9.688218286E0
8.329570417E0	-2.019001465E0	3.418890381E-1	9.571096802E0	9.787703971E0
8.339534417E0	-1.771116943E0	2.357597351E-1	9.495204620E0	9.661850168E0
8.349498417E0	-1.991608429E0	3.462300110E-1	9.617799683E0	9.827942312E0
8.359461417E0	-1.774260406E0	2.710862732E-1	9.501641235E0	9.669678067E0
8.369425417E0	-2.009571075E0	3.415896606E-1	9.695039063E0	9.907009732E0
8.379389417E0	-1.776505737E0	3.195854187E-1	9.501641235E0	9.671571415E0
8.389352417E0	-1.958527222E0	3.013233948E-1	9.547895050E0	9.751355011E0
8.399316417E0	-1.804198151E0	3.242257690E-1	9.574689331E0	9.748586005E0
8.409279417E0	-1.934427338E0	2.547702026E-1	9.576036530E0	9.772788374E0
8.419248375E0	-1.928888855E0	3.582051086E-1	9.609417114E0	9.807640919E0
8.429212375E0	-1.869013367E0	2.496807861E-1	9.532327423E0	9.717037489E0
8.439175375E0	-1.870809631E0	3.995191956E-1	9.643246765E0	9.831162314E0
8.449139375E0	-1.822460175E0	2.408491516E-1	9.495204620E0	9.671519022E0
8.459103375E0	-1.972298584E0	3.984713745E-1	9.638905792E0	9.846687058E0
8.469066375E0	-1.881138153E0	2.619552612E-1	9.519903259E0	9.707515613E0
8.479030375E0	-1.959724731E0	3.808081055E-1	9.661658478E0	9.865757973E0
8.488993375E0	-1.768572235E0	2.709365845E-1	9.526489563E0	9.693052036E0
8.498957375E0	-1.974693604E0	3.520678711E-1	9.611063690E0	9.818141976E0
8.508921375E0	-1.809437256E0	3.080593872E-1	9.480235748E0	9.656284669E0
8.518884375E0	-2.011517029E0	3.373983765E-1	9.609417114E0	9.823488978E0
8.528848375E0	-1.768721924E0	3.276686096E-1	9.567953339E0	9.735577798E0
8.538812375E0	-1.968706055E0	3.044668579E-1	9.647288361E0	9.850821098E0
8.548775375E0	-1.781894531E0	3.727249146E-1	9.647587738E0	9.817841980E0
8.558739375E0	-1.951342163E0	2.683918762E-1	9.538314972E0	9.739569957E0
8.568702375E0	-1.869462433E0	3.882925415E-1	9.624685364E0	9.812248939E0
8.578666375E0	-1.917662201E0	2.523751831E-1	9.586664429E0	9.779839284E0
8.588630375E0	-1.930834808E0	4.059558105E-1	9.621541901E0	9.821761131E0
8.598593375E0	-1.872306519E0	2.815644836E-1	9.595196686E0	9.780215217E0
8.608557375E0	-1.921554108E0	4.034111023E-1	9.648785248E0	9.846530732E0
8.618521375E0	-1.799857178E0	2.872526550E-1	9.539063416E0	9.711628638E0
8.628484375E0	-2.029180298E0	3.930825806E-1	9.617051239E0	9.836653960E0
8.638448375E0	-1.748663635E0	3.143463135E-1	9.532926178E0	9.697077891E0
8.648412375E0	-2.048639832E0	3.433859253E-1	9.682315521E0	9.902629596E0
8.658375375E0	-1.722917175E0	3.478765869E-1	9.612560577E0	9.771938527E0
8.668339375E0	-2.030377808E0	3.095562744E-1	9.622140656E0	9.838894751E0
8.678302375E0	-1.756447449E0	3.938310242E-1	9.540111237E0	9.708446473E0
8.688266375E0	-1.963017883E0	3.020718384E-1	9.589059448E0	9.792586365E0
8.698230375E0	-1.838327179E0	4.138893127E-1	9.639205170E0	9.821661137E0
8.708193375E0	-1.960024109E0	2.835104370E-1	9.596244507E0	9.798468315E0
8.718157375E0	-1.888622589E0	4.336482239E-1	9.716444550E0	9.907786875E0
8.728121375E0	-1.829794922E0	2.709365845E-1	9.583820343E0	9.760695081E0
8.738084375E0	-1.954934692E0	4.207749939E-1	9.613608398E0	9.819383264E0
8.748048375E0	-1.810485077E0	2.655477905E-1	9.583371277E0	9.756504337E0
8.758011375E0	-2.068997498E0	4.134402466E-1	9.669442291E0	9.896959013E0
8.767975375E0	-1.703757019E0	3.132984924E-1	9.593400421E0	9.748552486E0
8.777939375E0	-2.034569092E0	3.932322693E-1	9.665101318E0	9.884750199E0
8.787902375E0	-1.674118652E0	3.436853027E-1	9.593849487E0	9.744882803E0
8.797866375E0	-2.080074463E0	3.623963928E-1	9.619146881E0	9.848148437E0
8.807830375E0	-1.738185425E0	3.731739807E-1	9.561666412E0	9.725534020E0
8.817793375E0	-2.059567108E0	3.276686096E-1	9.638606415E0	9.861638657E0
8.827757375E0	-1.738035736E0	4.272116089E-1	9.678573303E0	9.842665247E0
8.837720375E0	-1.963466949E0	2.968327332E-1	9.601483612E0	9.804682539E0
8.847684375E0	-1.849853210E0	4.478686523E-1	9.583071899E0	9.770251289E0
8.857648375E0	-1.894011383E0	3.088078308E-1	9.648186493E0	9.837181710E0
8.867611375E0	-1.926942902E0	4.454736328E-1	9.611363068E0	9.812739461E0
8.877575375E0	-1.808539124E0	2.939886475E-1	9.638157349E0	9.810775717E0
8.887539375E0	-2.022144928E0	4.272116089E-1	9.681716766E0	9.899859565E0
8.897502375E0	-1.687141571E0	3.082090759E-1	9.575437775E0	9.727818260E0
8.907466375E0	-2.093995514E0	4.019142151E-1	9.658365326E0	9.890923770E0
8.917430375E0	-1.654958496E0	3.156935120E-1	9.593101044E0	9.739924931E0
8.927393375E0	-2.113904114E0	3.594026184E-1	9.703571320E0	9.937658537E0
8.937357375E0	-1.643731842E0	3.661386108E-1	9.623338165E0	9.769572626E0
8.947320375E0	-2.090852051E0	3.168910217E-1	9.654922485E0	9.883805462E0
8.957284375E0	-1.633553009E0	3.665876770E-1	9.565857697E0	9.711257150E0
8.967248375E0	-2.066452789E0	2.992277527E-1	9.646390228E0	9.869782612E0
8.977211375E0	-1.727707214E0	3.917353821E-1	9.594448242E0	9.756631893E0
8.987175375E0	-2.005978546E0	2.700384521E-1	9.657317505E0	9.867150150E0
8.997139375E0	-1.788480835E0	4.209246826E-1	9.644593964E0	9.818046344E0
9.007102375E0	-1.862726440E0	2.510279846E-1	9.648635559E0	9.830001678E0
9.017066375E0	-1.883682861E0	3.833528137E-1	9.577084351E0	9.768099363E0
9.027029375E0	-1.787582703E0	2.773731995E-1	9.607920227E0	9.776733550E0
9.036993375E0	-2.015858002E0	3.680845642E-1	9.664053497E0	9.878921992E0
9.046957375E0	-1.679956512E0	2.769241333E-1	9.554032288E0	9.704559434E0
9.056920375E0	-2.072440338E0	3.580554199E-1	9.708211670E0	9.933407596E0
9.066884375E0	-1.628762970E0	3.055146790E-1	9.588011627E0	9.730168292E0
9.076848375E0	-2.033521271E0	3.212319946E-1	9.614356842E0	9.832306761E0
9.086811375E0	-1.666185150E0	3.296145630E-1	9.587712250E0	9.736993627E0
9.096775375E0	-2.039059753E0	2.601589966E-1	9.701325989E0	9.916711820E0
9.106738375E0	-1.714534607E0	3.784130859E-1	9.574539642E0	9.734199235E0
9.116702375E0	-1.955982513E0	2.342628479E-1	9.716294861E0	9.913986711E0
9.126666375E0	-1.721719666E0	3.396437073E-1	9.590256958E0	9.749497678E0
9.136629375E0	-1.892514496E0	2.472857666E-1	9.658814392E0	9.845580573E0
9.146593375E0	-1.861079865E0	3.433859253E-1	9.578132172E0	9.763306205E0
9.156557375E0	-1.832938385E0	2.377056885E-1	9.627978516E0	9.803781791E0
9.166520375E0	-1.879491577E0	3.456312561E-1	9.663754120E0	9.850893018E0
9.176484375E0	-1.684297485E0	2.290237427E-1	9.596843262E0	9.746215188E0
9.186447375E0	-1.996099091E0	3.052153015E-1	9.612710266E0	9.822513254E0
9.196411375E0	-1.631457367E0	2.495310974E-1	9.516610107E0	9.658663823E0
9.206375375E0	-2.010618896E0	2.833607483E-1	9.673783264E0	9.884582151E0
9.216338375E0	-1.640588379E0	2.582130432E-1	9.534273376E0	9.677839274E0
9.226302375E0	-2.002835083E0	2.469863892E-1	9.724228363E0	9.931413188E0
9.236266375E0	-1.646126862E0	2.893482971E-1	9.570947113E0	9.715785337E0
9.246229375E0	-1.944905548E0	2.207908630E-1	9.665700073E0	9.861904689E0
9.256193375E0	-1.679058380E0	3.002755737E-1	9.512867889E0	9.664577484E0
9.266157375E0	-1.918710022E0	1.922003174E-1	9.732311554E0	9.921505798E0
9.276120375E0	-1.794917450E0	3.140469360E-1	9.520352325E0	9.693165764E0
9.286084375E0	-1.843566284E0	1.784289551E-1	9.683213654E0	9.858762610E0
9.296047375E0	-1.856888580E0	2.954855347E-1	9.550439758E0	9.733768360E0
9.306011375E0	-1.660347290E0	1.815724182E-1	9.635163574E0	9.778859789E0
9.315975375E0	-1.991608429E0	2.859054565E-1	9.552685089E0	9.762276296E0
9.325938375E0	-1.614392853E0	1.944456482E-1	9.585017853E0	9.721966912E0
9.335902375E0	-2.039209442E0	2.534230042E-1	9.657616882E0	9.873811939E0
9.345866375E0	-1.551224213E0	2.278262329E-1	9.615404663E0	9.742392324E0
9.355829375E0	-2.049537964E0	1.989363098E-1	9.624385986E0	9.842204384E0
9.365793375E0	-1.569785614E0	2.342628479E-1	9.487869873E0	9.619707931E0
9.375756375E0	-2.034419403E0	1.987866211E-1	9.662556610E0	9.876405149E0
9.385720375E0	-1.625170441E0	2.366578674E-1	9.494905243E0	9.635891836E0
9.395684375E0	-1.969155121E0	1.799258423E-1	9.675878906E0	9.875858333E0
9.405647375E0	-1.713486786E0	2.787203979E-1	9.531578979E0	9.688380663E0
9.415606667E0	-1.851649475E0	1.612147522E-1	9.636959839E0	9.814560149E0
9.425570667E0	-1.817969513E0	2.676434326E-1	9.482181702E0	9.658592857E0
9.435533667E0	-1.734143829E0	1.375639343E-1	9.600286102E0	9.756621951E0
9.445497667E0	-1.938768311E0	2.429447937E-1	9.575288086E0	9.772614116E0
9.455460667E0	-1.670675812E0	1.719923401E-1	9.581575012E0	9.727657413E0
9.465424667E0	-1.996997223E0	2.315684509E-1	9.584568787E0	9.793139470E0
9.475388667E0	-1.562750244E0	1.772314453E-1	9.527986450E0	9.656921099E0
9.485351667E0	-2.051932983E0	2.148033142E-1	9.602531433E0	9.821668868E0
9.495315667E0	-1.577868805E0	2.025288391E-1	9.501192169E0	9.633449047E0
9.505279667E0	-2.090702362E0	1.829196167E-1	9.658215637E0	9.883603859E0
9.515242667E0	-1.577120361E0	2.195933533E-1	9.528285828E0	9.660422387E0
9.525206667E0	-2.040406952E0	1.440005493E-1	9.689201202E0	9.902758031E0
9.535170667E0	-1.654958496E0	2.366578674E-1	9.426347809E0	9.573449095E0
9.545133667E0	-1.926643524E0	1.555265808E-1	9.649084625E0	9.840781366E0
9.555097667E0	-1.815724182E0	2.321672058E-1	9.454489288E0	9.630063531E0
9.565060667E0	-1.789678345E0	1.148112488E-1	9.628577271E0	9.794163081E0
9.575024667E0	-1.929188232E0	2.363584900E-1	9.535321198E0	9.731391623E0
9.584988667E0	-1.691482544E0	1.514849854E-1	9.630822601E0	9.779407184E0
9.594951667E0	-1.957329712E0	1.980381775E-1	9.477691040E0	9.679720356E0
9.604915667E0	-1.677262115E0	1.378633118E-1	9.515562286E0	9.663236524E0
9.614879667E0	-2.064207458E0	1.924996948E-1	9.563762054E0	9.785885407E0
9.624842667E0	-1.646126862E0	1.845661926E-1	9.511071625E0	9.654236468E0
9.634806667E0	-2.037113800E0	1.770817566E-1	9.580676880E0	9.796456505E0
9.644769667E0	-1.594933319E0	1.865121460E-1	9.506431274E0	9.641101319E0
9.654733667E0	-2.047442322E0	1.661544800E-1	9.632319489E0	9.848919032E0
9.664697667E0	-1.702709198E0	2.013313293E-1	9.419911194E0	9.574679097E0
9.674660667E0	-2.018552399E0	1.492396545E-1	9.658964081E0	9.868759465E0
9.684624667E0	-1.729353790E0	1.917512512E-1	9.516610107E0	9.674363080E0
9.694588667E0	-1.905387726E0	1.432521057E-1	9.632020111E0	9.819716644E0
9.704551667E0	-1.840572510E0	2.032772827E-1	9.488768005E0	9.667768464E0
9.714515667E0	-1.822609863E0	1.416055298E-1	9.572294312E0	9.745295133E0
9.724478667E0	-1.947300568E0	2.098635864E-1	9.454638977E0	9.655372619E0
9.734442667E0	-1.732048187E0	1.544787598E-1	9.594897308E0	9.751200386E0
9.744406667E0	-2.047442322E0	1.983375549E-1	9.553882599E0	9.772821013E0
9.754369667E0	-1.637893982E0	1.574725342E-1	9.563013611E0	9.703541808E0
9.764333667E0	-2.130070496E0	1.725910950E-1	9.506431274E0	9.743676081E0
9.774297667E0	-1.596879272E0	1.568737793E-1	9.464668121E0	9.599717467E0
9.784260667E0	-2.153122559E0	1.395098877E-1	9.615704041E0	9.854804105E0
9.794224667E0	-1.617536316E0	1.890568542E-1	9.452393646E0	9.591658453E0
9.804188667E0	-2.121089172E0	1.535806274E-1	9.647288361E0	9.878905759E0
9.814151667E0	-1.630259857E0	2.055226135E-1	9.442813568E0	9.584712558E0
9.824115667E0	-2.060016174E0	1.637594604E-1	9.672286377E0	9.890581760E0
9.834078667E0	-1.750310211E0	1.904040527E-1	9.403295746E0	9.566703216E0
9.844042667E0	-2.020947418E0	1.558259583E-1	9.616452484E0	9.827749924E0
9.854006667E0	-1.862576752E0	2.062710571E-1	9.560768280E0	9.742691107E0
9.863969667E0	-1.843865662E0	1.305285645E-1	9.598489838E0	9.774859868E0
9.873933667E0	-1.945953369E0	1.739382935E-1	9.470655670E0	9.670072795E0
9.883897667E0	-1.766476593E0	1.746867371E-1	9.554481354E0	9.717976587E0
9.893860667E0	-2.084265747E0	1.799258423E-1	9.538464661E0	9.765185359E0
9.903824667E0	-1.703158264E0	1.764830017E-1	9.487271118E0	9.640550171E0
9.913787667E0	-2.122735748E0	1.537303162E-1	9.634415131E0	9.866691187E0
9.923751667E0	-1.647174683E0	1.865121460E-1	9.472002869E0	9.615966387E0
9.933715667E0	-2.114502869E0	1.595681763E-1	9.655521240E0	9.885629712E0
9.943678667E0	-1.685794373E0	1.740879822E-1	9.406139832E0	9.557597806E0
9.953642667E0	-2.075583801E0	1.428030396E-1	9.678124237E0	9.899218634E0
9.963606667E0	-1.753303986E0	1.947450256E-1	9.414223022E0	9.578078910E0
9.973569667E0	-2.050436096E0	1.681004333E-1	9.664053497E0	9.880611112E0
9.983533667E0	-1.798509979E0	1.901046753E-1	9.439520416E0	9.611208229E0
9.993497667E0	-1.908231812E0	1.474433899E-1	9.631870422E0	9.820184114E0
1.000346067E1	-1.954785004E0	1.941462708E-1	9.459129639E0	9.660952888E0
1.001342467E1	-1.819616089E0	1.570234680E-1	9.593400421E0	9.765704825E0
1.002338767E1	-2.090103607E0	2.053729248E-1	9.576485596E0	9.804069945E0
1.003335167E1	-1.693727875E0	1.736389160E-1	9.554481354E0	9.704997606E0
1.004331567E1	-2.105222168E0	1.448986816E-1	9.584419098E0	9.813971951E0
1.005327867E1	-1.685045929E0	2.088157654E-1	9.412127380E0	9.564053828E0
1.006324267E1	-2.152673492E0	1.562750244E-1	9.666897583E0	9.904914635E0
1.007320667E1	-1.691931610E0	1.905537415E-1	9.389374695E0	9.542499697E0
1.008316967E1	-2.123783569E0	1.580712891E-1	9.719737701E0	9.950313772E0
1.009313367E1	-1.761836243E0	1.942959595E-1	9.482032013E0	9.646281613E0
1.010309767E1	-2.001637573E0	1.624122620E-1	9.668244781E0	9.874608239E0
1.011306067E1	-1.869013367E0	1.856140137E-1	9.388177185E0	9.574211946E0
1.012302467E1	-1.917662201E0	1.535806274E-1	9.674531708E0	9.863953522E0
1.013298767E1	-1.992805939E0	1.761836243E-1	9.442813568E0	9.652411318E0
1.014295167E1	-1.813029785E0	1.763333130E-1	9.628427582E0	9.799223854E0
1.015291567E1	-2.075733490E0	1.758842468E-1	9.538015594E0	9.762855436E0
1.016287867E1	-1.626367950E0	1.636097717E-1	9.548194427E0	9.687097485E0
1.017284267E1	-2.207459564E0	1.740879822E-1	9.627080383E0	9.878454386E0
1.018280667E1	-1.610201569E0	1.785786438E-1	9.459578705E0	9.597305283E0
1.019276967E1	-2.239792328E0	1.896556091E-1	9.692045288E0	9.949290467E0
1.020273367E1	-1.629361725E0	1.875599670E-1	9.490414581E0	9.631093775E0
1.021269667E1	-2.178419952E0	1.520837402E-1	9.704319763E0	9.946982709E0
1.022266067E1	-1.698966980E0	1.757345581E-1	9.388177185E0	9.542287058E0
1.023262467E1	-2.071242828E0	1.534309387E-1	9.689201202E0	9.909299059E0
1.024258767E1	-1.829495544E0	1.957928467E-1	9.437574463E0	9.615258734E0
1.025255167E1	-1.920506287E0	1.573228455E-1	9.677974548E0	9.867942351E0
1.026251567E1	-2.002685394E0	1.986369324E-1	9.519154816E0	9.729569046E0
1.027247867E1	-1.768123169E0	1.811233521E-1	9.659413147E0	9.821574596E0
1.028244267E1	-2.103425903E0	1.603166199E-1	9.477691040E0	9.709620456E0
1.029240667E1	-1.644629974E0	1.764830017E-1	9.573791199E0	9.715628231E0
1.030236967E1	-2.222129059E0	1.552272034E-1	9.628726959E0	9.883032728E0
1.031233367E1	-1.606010284E0	1.781295776E-1	9.499994659E0	9.636435944E0
1.032229667E1	-2.282303925E0	1.718426514E-1	9.697733459E0	9.964159541E0
1.033226067E1	-1.510658569E0	1.658551025E-1	9.459878082E0	9.581173757E0
1.034222467E1	-2.256108398E0	1.658551025E-1	9.693093109E0	9.953571572E0
1.035218767E1	-1.619631958E0	1.847158813E-1	9.404044189E0	9.544284926E0
1.036215167E1	-2.180814972E0	1.669029236E-1	9.748777313E0	9.991119538E0
1.037211567E1	-1.742825775E0	1.927990723E-1	9.437275085E0	9.598790247E0
1.038207867E1	-1.989662476E0	1.664538574E-1	9.755962372E0	9.958175810E0
1.039204267E1	-1.887125702E0	1.495390320E-1	9.383836212E0	9.572877697E0
1.040200567E1	-1.878144379E0	1.764830017E-1	9.695338440E0	9.877153437E0
1.041196967E1	-2.029479675E0	1.739382935E-1	9.484127655E0	9.700397912E0
1.042193779E1	-1.721869354E0	1.654060364E-1	9.607620850E0	9.762098730E0
1.043190079E1	-2.160307617E0	1.751358032E-1	9.618997192E0	9.860157632E0
1.044186479E1	-1.580862579E0	1.847158813E-1	9.570348358E0	9.701794378E0
1.045182879E1	-2.242486725E0	1.764830017E-1	9.650581512E0	9.909269221E0
1.046179179E1	-1.531465302E0	1.642085266E-1	9.455986176E0	9.580606712E0
1.047175579E1	-2.320025482E0	1.637594604E-1	9.745783539E0	1.001946267E1
1.048171979E1	-1.539398804E0	1.660047913E-1	9.431287537E0	9.557535816E0
1.049168279E1	-2.251018982E0	1.981878662E-1	9.743089142E0	1.000170740E1
1.050164679E1	-1.593586121E0	1.769320679E-1	9.441017303E0	9.576201199E0
1.051160979E1	-2.121538239E0	1.739382935E-1	9.717642059E0	9.948052383E0
1.052157379E1	-1.741628265E0	2.001338196E-1	9.426647186E0	9.588274075E0
1.053153779E1	-2.018253021E0	1.766326904E-1	9.694739685E0	9.904166897E0
1.054150079E1	-1.876048737E0	1.920506287E-1	9.526040497E0	9.710916015E0
1.055146479E1	-1.811832275E0	1.661544800E-1	9.672436066E0	9.842071070E0
1.056142879E1	-2.066303101E0	1.775308228E-1	9.555379486E0	9.777852669E0
1.057139179E1	-1.660347290E0	1.827699280E-1	9.553433533E0	9.698363276E0
1.058135579E1	-2.139949951E0	1.802252197E-1	9.617500305E0	9.854348230E0
1.059131979E1	-1.633253632E0	1.865121460E-1	9.490264893E0	9.631585121E0
1.060128279E1	-2.185305634E0	1.718426514E-1	9.724378052E0	9.968380967E0
1.061124679E1	-1.591041412E0	1.872605896E-1	9.520651703E0	9.654495748E0
1.062120979E1	-2.227667542E0	1.983375549E-1	9.726024628E0	9.979849474E0
1.063117379E1	-1.549877014E0	1.607656860E-1	9.401649170E0	9.529898818E0
1.064113779E1	-2.208507385E0	2.019300842E-1	9.776170349E0	1.002455921E1
1.065110079E1	-1.636546783E0	1.960922241E-1	9.446855164E0	9.589567770E0
1.066106479E1	-2.118843842E0	2.005828857E-1	9.761650543E0	9.990973629E0
1.067102879E1	-1.725312195E0	1.809736633E-1	9.413324890E0	9.571840947E0
1.068099179E1	-1.950743408E0	1.999841309E-1	9.754764862E0	9.949916131E0
1.069095579E1	-1.886676636E0	1.809736633E-1	9.490564270E0	9.677970364E0
1.070091979E1	-1.820813599E0	1.920506287E-1	9.631121979E0	9.803609344E0
1.071088279E1	-2.058519287E0	2.092648315E-1	9.645791473E0	9.865221061E0
1.072084679E1	-1.676064606E0	1.773811340E-1	9.581874390E0	9.728975971E0
1.073080979E1	-2.121538239E0	1.878593445E-1	9.642348633E0	9.874771025E0
1.074077379E1	-1.614542542E0	1.944456482E-1	9.467362518E0	9.606014251E0
1.075073779E1	-2.174378357E0	2.122586060E-1	9.678124237E0	9.921646219E0
1.076070079E1	-1.623823242E0	1.939965820E-1	9.445807343E0	9.586329483E0
1.077066479E1	-2.171234894E0	1.996847534E-1	9.802964630E0	1.004252212E1
1.078062879E1	-1.623673553E0	1.919009399E-1	9.448950806E0	9.589359369E0
1.079059179E1	-2.085313568E0	2.104623413E-1	9.789492645E0	1.001134323E1
1.080055579E1	-1.723665619E0	1.734892273E-1	9.408983917E0	9.567136459E0
1.081051879E1	-2.005080414E0	2.158511353E-1	9.751771088E0	9.958111193E0
1.082048279E1	-1.841470642E0	1.866618347E-1	9.478888550E0	9.657907895E0
1.083044679E1	-1.892514496E0	2.276765442E-1	9.694140930E0	9.879768019E0
1.084040979E1	-1.980381775E0	2.049238586E-1	9.534572754E0	9.740225016E0
1.085037379E1	-1.723066864E0	2.092648315E-1	9.684111786E0	9.838433426E0
1.086033779E1	-2.083517303E0	2.167492676E-1	9.576036530E0	9.802474188E0
1.087030079E1	-1.650467834E0	1.910028076E-1	9.592801666E0	9.735623758E0
1.088026479E1	-2.181413727E0	2.269281006E-1	9.689650269E0	9.934756390E0
1.089022879E1	-1.577120361E0	2.112107849E-1	9.564660187E0	9.696114847E0
1.090019179E1	-2.190095673E0	2.086660767E-1	9.683213654E0	9.929989287E0
1.091015579E1	-1.581012268E0	2.168989563E-1	9.411977692E0	9.546306564E0
1.092011879E1	-2.168839874E0	2.532733154E-1	9.760003967E0	1.000128448E1
1.093008279E1	-1.611099701E0	2.032772827E-1	9.381890259E0	9.521387962E0
1.094004679E1	-2.146536255E0	2.242337036E-1	9.806557159E0	1.004123807E1
1.095000979E1	-1.752854919E0	1.923500061E-1	9.492061157E0	9.654466526E0
1.095997379E1	-1.985620880E0	2.484832764E-1	9.726623383E0	9.930339201E0
1.096993779E1	-1.853296051E0	2.149530029E-1	9.475445709E0	9.657379688E0
1.097990079E1	-1.800455933E0	2.227368164E-1	9.662556610E0	9.831391229E0
1.098986479E1	-2.025138702E0	2.276765442E-1	9.589209137E0	9.803364486E0
1.099982879E1	-1.782493286E0	2.487826538E-1	9.633666687E0	9.800342288E0
1.100979179E1	-2.116897888E0	2.213896179E-1	9.607171783E0	9.840122952E0
1.101975579E1	-1.584006042E0	2.234852600E-1	9.558522949E0	9.691459218E0
1.102971879E1	-2.193239136E0	2.266287231E-1	9.664951630E0	9.913271331E0
1.103968279E1	-1.593735809E0	2.083666992E-1	9.448501740E0	9.584236831E0
1.104964679E1	-2.209555206E0	2.597099304E-1	9.742340698E0	9.993136932E0
1.105960979E1	-1.607656860E0	2.409988403E-1	9.480535126E0	9.618897405E0
1.106957379E1	-2.112407227E0	2.369572449E-1	9.747579803E0	9.976659012E0
1.107953779E1	-1.657802582E0	2.173480225E-1	9.408534851E0	9.555944621E0
1.108950079E1	-2.078128510E0	2.585124207E-1	9.757908325E0	9.980091265E0
1.109946479E1	-1.808090057E0	2.239343262E-1	9.399703217E0	9.574641340E0
1.110942879E1	-1.926344147E0	2.483335876E-1	9.728269958E0	9.920267523E0
1.111939179E1	-1.964514771E0	2.326162720E-1	9.568851471E0	9.771199880E0
1.112935579E1	-1.779349823E0	2.689906311E-1	9.695338440E0	9.860934500E0
1.113931879E1	-2.069296875E0	2.402503967E-1	9.516610107E0	9.741949381E0
1.114928279E1	-1.690883789E0	2.513273621E-1	9.595795441E0	9.746873528E0
1.115924679E1	-2.114053802E0	2.409988403E-1	9.647587738E0	9.879435869E0
1.116920979E1	-1.616488495E0	2.415975952E-1	9.533375244E0	9.672468558E0
1.117917379E1	-2.267185364E0	2.710862732E-1	9.729916534E0	9.994242993E0
1.118913779E1	-1.533261566E0	2.052232361E-1	9.444460144E0	9.570310080E0
1.119910079E1	-2.233206024E0	2.802172852E-1	9.719288635E0	9.976487481E0
1.120906479E1	-1.588646393E0	2.091151428E-1	9.379644928E0	9.515527599E0
1.121902879E1	-2.156415710E0	2.793191528E-1	9.764195251E0	1.000338227E1
1.122899179E1	-1.731449432E0	2.486329651E-1	9.501940613E0	9.661604986E0
1.123895579E1	-2.004331970E0	2.610571289E-1	9.760902100E0	9.967984113E0
1.124891879E1	-1.879790955E0	2.314187622E-1	9.474996643E0	9.662439136E0
1.125888279E1	-1.850152588E0	2.525248718E-1	9.628427582E0	9.807826013E0
1.126884679E1	-2.014510803E0	2.478845215E-1	9.542506256E0	9.755978995E0
1.127880979E1	-1.761686554E0	2.683918762E-1	9.594747620E0	9.758829622E0
1.128877379E1	-2.135010223E0	2.499801636E-1	9.675429840E0	9.911342055E0
1.129873779E1	-1.641636200E0	2.695893860E-1	9.585616608E0	9.728910196E0
1.130870079E1	-2.165995789E0	2.540217590E-1	9.672436066E0	9.915245043E0
1.131866479E1	-1.584155731E0	2.409988403E-1	9.426946564E0	9.562162482E0
1.132862779E1	-2.234253845E0	2.743794250E-1	9.783654785E0	1.003927663E1
1.133859179E1	-1.585203552E0	2.291734314E-1	9.411229248E0	9.546550514E0
1.134855579E1	-2.233954468E0	2.989283752E-1	9.773925018E0	1.003042975E1
1.135851879E1	-1.618284760E0	2.432441711E-1	9.438771973E0	9.579584001E0
1.136848279E1	-2.117197266E0	2.992277527E-1	9.735754395E0	9.967796905E0
1.137844679E1	-1.783391418E0	2.350112915E-1	9.429042206E0	9.599091216E0
1.138840979E1	-2.003583527E0	2.977308655E-1	9.711654510E0	9.920646347E0
1.139837379E1	-1.900298309E0	2.700384521E-1	9.536818085E0	9.728049836E0
1.140833779E1	-1.868414612E0	2.781216431E-1	9.725126495E0	9.906887007E0
1.141829692E1	-2.033221893E0	2.615061951E-1	9.569150848E0	9.786267149E0
1.142826092E1	-1.719474335E0	2.568658447E-1	9.528734894E0	9.686039476E0
1.143822392E1	-2.179168396E0	2.942880249E-1	9.660910034E0	9.908004997E0
1.144818792E1	-1.631756744E0	2.646496582E-1	9.423054657E0	9.566955032E0
1.145815192E1	-2.213746490E0	2.818638611E-1	9.766290894E0	1.001801171E1
1.146811492E1	-1.642384644E0	2.662962341E-1	9.455088043E0	9.600366186E0
1.147807892E1	-2.133663025E0	3.086581421E-1	9.800719299E0	1.003503296E1
1.148804292E1	-1.679357758E0	2.372566223E-1	9.337133331E0	9.489920549E0
1.149800592E1	-2.137105865E0	3.019221497E-1	9.759854279E0	9.995655757E0
1.150796992E1	-1.770667877E0	2.444416809E-1	9.461075592E0	9.628445764E0
1.151793392E1	-2.041454773E0	3.092568970E-1	9.717043304E0	9.933987518E0
1.152789692E1	-1.911824341E0	2.544708252E-1	9.493108978E0	9.687050417E0
1.153786092E1	-1.823657684E0	3.107537842E-1	9.729018402E0	9.903337535E0
1.154782392E1	-2.046244812E0	2.577639771E-1	9.498497772E0	9.719826132E0
1.155778792E1	-1.791175232E0	2.881507874E-1	9.620344391E0	9.789911429E0
1.156775192E1	-2.138003998E0	2.848576355E-1	9.631421356E0	9.869978840E0
1.157771492E1	-1.662742310E0	2.698887634E-1	9.598489838E0	9.745181327E0
1.158767892E1	-2.195634155E0	2.773731995E-1	9.696985016E0	9.946319100E0
1.159764292E1	-1.599274292E0	2.519261169E-1	9.439520416E0	9.577353012E0
1.160760592E1	-2.232756958E0	3.140469360E-1	9.712253265E0	9.970541239E0
1.161756992E1	-1.626667328E0	2.612068176E-1	9.406289520E0	9.549479469E0
1.162753392E1	-2.205363922E0	3.008743286E-1	9.779463501E0	1.002955940E1
1.163749692E1	-1.702110443E0	2.501298523E-1	9.458530884E0	9.613716835E0
1.164746092E1	-2.111958160E0	3.255729675E-1	9.836943970E0	1.006637133E1
1.165742392E1	-1.787882080E0	2.339634705E-1	9.320368195E0	9.493183055E0
1.166738792E1	-1.972448273E0	3.203338623E-1	9.736502838E0	9.939449355E0
1.167735192E1	-1.940863953E0	2.366578674E-1	9.461524658E0	9.661439266E0
1.168731492E1	-1.875749359E0	3.180885315E-1	9.682764587E0	9.867904845E0
1.169727892E1	-2.064955902E0	2.519261169E-1	9.519753571E0	9.744394167E0
1.170724292E1	-1.680555267E0	3.129991150E-1	9.618398438E0	9.769126008E0
1.171720592E1	-2.161056061E0	2.764750671E-1	9.603878632E0	9.847897569E0
1.172716992E1	-1.632954254E0	2.775228882E-1	9.446705475E0	9.590818676E0
1.173713392E1	-2.267933807E0	3.053649902E-1	9.754764862E0	1.001959126E1
1.174709692E1	-1.584904175E0	2.556683350E-1	9.484277344E0	9.619189377E0
1.175706092E1	-2.233655090E0	3.005749512E-1	9.739346924E0	9.996721406E0
1.176702392E1	-1.637594604E0	2.409988403E-1	9.408385162E0	9.552879560E0
1.177698792E1	-2.183808746E0	3.227288818E-1	9.739496613E0	9.986539382E0
1.178695192E1	-1.685644684E0	2.664459229E-1	9.372310181E0	9.526415357E0
1.179691492E1	-2.096989288E0	3.188369751E-1	9.797875214E0	1.002483814E1
1.180687892E1	-1.833537140E0	2.409988403E-1	9.473649445E0	9.652459411E0
1.181684292E1	-1.929487610E0	3.362008667E-1	9.730664978E0	9.925814545E0
1.182680592E1	-1.952988739E0	2.224374390E-1	9.398805084E0	9.602144575E0
1.183676992E1	-1.825004883E0	3.149450684E-1	9.655970306E0	9.831968052E0
1.184673392E1	-2.045047302E0	2.546205139E-1	9.510472870E0	9.731194391E0
1.185669692E1	-1.760638733E0	3.064128113E-1	9.595496063E0	9.760496005E0
1.186666092E1	-2.140399017E0	2.734812927E-1	9.595046997E0	9.834684888E0
1.187662492E1	-1.624421997E0	2.606080627E-1	9.550589447E0	9.691254933E0
1.188658792E1	-2.226769409E0	2.990780640E-1	9.649234314E0	9.907354467E0
1.189655192E1	-1.605112152E0	2.447410583E-1	9.436077576E0	9.574750295E0
1.190651492E1	-2.256557465E0	2.996768188E-1	9.705666962E0	9.969043533E0
1.191647892E1	-1.607656860E0	2.631527710E-1	9.438173218E0	9.577730611E0
1.192644292E1	-2.184557190E0	2.791694641E-1	9.766290894E0	1.001152653E1
1.193640592E1	-1.702260132E0	2.384541321E-1	9.335187378E0	9.492116377E0
1.194636992E1	-2.051783295E0	3.083587646E-1	9.764344940E0	9.982351022E0
1.195633392E1	-1.787882080E0	2.357597351E-1	9.326804810E0	9.499546986E0
1.196629692E1	-1.968406677E0	3.320095825E-1	9.759554901E0	9.961614682E0
1.197626092E1	-1.956730957E0	2.157014465E-1	9.434281311E0	9.637478249E0
1.198622492E1	-1.847009125E0	3.158432007E-1	9.672136688E0	9.851975830E0
1.199618792E1	-2.038610687E0	2.275268555E-1	9.457333374E0	9.677233931E0
1.200615192E1	-1.683998108E0	2.739303589E-1	9.575587463E0	9.726395156E0
1.201611492E1	-2.115401001E0	2.532733154E-1	9.530680847E0	9.765907340E0
1.202607892E1	-1.679956512E0	2.866539001E-1	9.558373260E0	9.709115497E0
1.203604292E1	-2.268382874E0	2.703378296E-1	9.604327698E0	9.872271974E0
1.204600592E1	-1.562600555E0	2.627037048E-1	9.523795166E0	9.654709115E0
1.205596992E1	-2.236499176E0	2.627037048E-1	9.615105286E0	9.875281842E0
1.206593392E1	-1.575922852E0	2.486329651E-1	9.386829987E0	9.521445709E0
1.207589692E1	-2.227517853E0	2.746788025E-1	9.701625366E0	9.957852127E0
1.208586092E1	-1.645677795E0	2.520758057E-1	9.447004852E0	9.592585590E0
1.209582492E1	-2.104174347E0	2.710862732E-1	9.720486145E0	9.949315974E0
1.210578792E1	-1.678609314E0	1.980381775E-1	9.306147766E0	9.458400213E0
1.211575192E1	-2.064207458E0	3.185375977E-1	9.707313538E0	9.929469006E0
1.212571592E1	-1.849853210E0	2.077679443E-1	9.322763214E0	9.506789067E0
1.213567892E1	-1.918260956E0	3.031196594E-1	9.703271942E0	9.895710839E0
1.214564292E1	-1.970352631E0	1.978884888E-1	9.439969482E0	9.645437946E0
1.215560692E1	-1.791773987E0	2.853067017E-1	9.705966339E0	9.874089148E0
1.216556992E1	-2.058070221E0	2.198927307E-1	9.402547302E0	9.627663352E0
1.217553392E1	-1.722617798E0	2.594105530E-1	9.598639526E0	9.755438825E0
1.218549792E1	-2.135758667E0	2.300715637E-1	9.502988434E0	9.742750494E0
1.219546092E1	-1.617386627E0	2.399510193E-1	9.503736877E0	9.643367183E0
1.220542492E1	-2.270029449E0	2.447410583E-1	9.619595947E0	9.886837618E0
1.221538792E1	-1.512604523E0	2.219883728E-1	9.417067108E0	9.540356608E0
1.222535192E1	-2.255509644E0	2.597099304E-1	9.672885132E0	9.935767699E0
1.223531592E1	-1.554217987E0	2.242337036E-1	9.344617767E0	9.475640112E0
1.224527892E1	-2.226020966E0	2.526745605E-1	9.695488129E0	9.950954920E0
1.225524292E1	-1.593436432E0	2.469863892E-1	9.385782166E0	9.523284559E0
1.226520692E1	-2.142943726E0	2.399510193E-1	9.704469452E0	9.941152430E0
1.227516992E1	-1.727108459E0	2.046244812E-1	9.322164459E0	9.483012444E0
1.228513392E1	-2.054777069E0	2.610571289E-1	9.706714783E0	9.925249191E0
1.229509792E1	-1.803898773E0	2.043251038E-1	9.314230957E0	9.489504616E0
1.230506092E1	-1.954485626E0	2.624043274E-1	9.720486145E0	9.918503969E0
1.231502492E1	-1.914069672E0	1.951940918E-1	9.419162750E0	9.613656451E0
1.232498892E1	-1.840422821E0	2.682421875E-1	9.708810425E0	9.885348244E0
1.233495192E1	-2.002685394E0	1.929487610E-1	9.359137573E0	9.572953261E0
1.234491592E1	-1.709594879E0	2.398013306E-1	9.639803925E0	9.793162872E0
1.235487992E1	-2.114951935E0	1.907034302E-1	9.463769989E0	9.699089230E0
1.236484292E1	-1.611698456E0	2.164498901E-1	9.540111237E0	9.677713825E0
1.237480692E1	-2.280807037E0	2.059716797E-1	9.587263184E0	9.856983333E0
1.238477092E1	-1.511706390E0	2.097138977E-1	9.489815826E0	9.611755331E0
1.239473392E1	-2.248623962E0	2.149530029E-1	9.640702057E0	9.901800375E0
1.240469792E1	-1.553768921E0	2.118095398E-1	9.387428741E0	9.517503849E0
1.241466192E1	-2.248324585E0	2.233355713E-1	9.696535950E0	9.956287041E0
1.242462917E1	-1.595083008E0	2.086660767E-1	9.396260376E0	9.532971226E0
1.243459317E1	-2.196232910E0	2.146536255E-1	9.752669220E0	9.999203573E0
1.244455717E1	-1.614243164E0	1.486408997E-1	9.303902435E0	9.444070925E0
1.245452017E1	-2.124532013E0	2.454895020E-1	9.752818909E0	9.984556977E0
1.246448417E1	-1.755699005E0	1.712438965E-1	9.310638428E0	9.476275186E0
1.247444817E1	-2.032473450E0	2.492317200E-1	9.747280426E0	9.960047213E0
1.248441117E1	-1.824106750E0	1.806742859E-1	9.430090027E0	9.606591828E0
1.249437517E1	-1.871408386E0	2.345622253E-1	9.704918518E0	9.886487355E0
1.250433917E1	-1.930834808E0	1.666035461E-1	9.418713684E0	9.616030744E0
1.251430217E1	-1.818568268E0	2.231858826E-1	9.632618866E0	9.805322468E0
1.252426617E1	-2.096240845E0	1.833686829E-1	9.478738861E0	9.709497420E0
1.253422917E1	-1.696721649E0	2.028282166E-1	9.601184235E0	9.752063492E0
1.254419317E1	-2.166594543E0	1.989363098E-1	9.547895050E0	9.792650686E0
1.255415717E1	-1.622326355E0	1.990859985E-1	9.554032288E0	9.692838129E0
1.256412017E1	-2.208357697E0	1.933978271E-1	9.576934662E0	9.830153811E0
1.257408417E1	-1.582658844E0	1.917512512E-1	9.477541351E0	9.610690278E0
1.258404817E1	-2.266436920E0	2.016307068E-1	9.679770813E0	9.943608713E0
1.259401117E1	-1.550475769E0	1.796264648E-1	9.464219055E0	9.592063548E0
1.260397517E1	-2.237546997E0	1.989363098E-1	9.727671204E0	9.983675639E0
1.261393917E1	-1.602417755E0	1.591191101E-1	9.378597107E0	9.515836550E0
1.262390217E1	-2.195783844E0	2.315684509E-1	9.731263733E0	9.978606339E0
1.263386617E1	-1.641336823E0	1.628613281E-1	9.345216522E0	9.489656591E0
1.264383017E1	-2.150727539E0	2.359094238E-1	9.756261749E0	9.993294028E0
1.265379317E1	-1.720222778E0	1.739382935E-1	9.418414307E0	9.575800175E0
1.266375717E1	-2.073787537E0	2.227368164E-1	9.787995758E0	1.000775037E1
1.267372117E1	-1.822609863E0	1.639091492E-1	9.393865356E0	9.570448227E0
1.268368417E1	-1.922601929E0	1.939965820E-1	9.692045288E0	9.882801967E0
1.269364817E1	-1.936373291E0	1.481918335E-1	9.445507965E0	9.643086801E0
1.270361217E1	-1.838776245E0	2.073188782E-1	9.636211395E0	9.812270341E0
1.271357517E1	-2.084565125E0	1.749861145E-1	9.561516724E0	9.787677659E0
1.272353917E1	-1.717079315E0	1.853146362E-1	9.578880615E0	9.733327115E0
1.273350317E1	-2.124382324E0	1.930984497E-1	9.626481628E0	9.859991674E0
1.274346617E1	-1.647773438E0	1.703457642E-1	9.495503998E0	9.638919605E0
1.275343017E1	-2.213596802E0	2.070195007E-1	9.671088867E0	9.923347608E0
1.276339417E1	-1.610800323E0	1.600172424E-1	9.521100769E0	9.657724528E0
1.277335717E1	-2.210902405E0	2.073188782E-1	9.680668945E0	9.932090504E0
1.278332117E1	-1.615290985E0	1.657054138E-1	9.468709717E0	9.606929111E0
1.279328517E1	-2.188149719E0	2.044747925E-1	9.709259491E0	9.954874635E0
1.280324817E1	-1.645228729E0	1.836680603E-1	9.382938080E0	9.527855926E0
1.281321217E1	-2.180814972E0	2.071691895E-1	9.773326263E0	1.001582644E1
1.282317617E1	-1.687740326E0	1.531315613E-1	9.385183411E0	9.536958862E0
1.283313917E1	-2.069895630E0	2.142045593E-1	9.809700623E0	1.002798972E1
1.284310317E1	-1.781744843E0	1.453477478E-1	9.393865356E0	9.562449842E0
1.285306717E1	-1.983824615E0	1.999841309E-1	9.741442566E0	9.943402688E0
1.286303017E1	-1.882485352E0	1.595681763E-1	9.460776215E0	9.647564443E0
1.287299417E1	-1.888023834E0	2.029779053E-1	9.674232330E0	9.858833867E0
1.288295817E1	-1.999990997E0	1.886077881E-1	9.510472870E0	9.720320524E0
1.289292117E1	-1.766626282E0	1.752854919E-1	9.687105560E0	9.848436808E0
1.290288517E1	-2.119592285E0	2.032772827E-1	9.556277618E0	9.790629961E0
1.291284917E1	-1.702409821E0	1.742376709E-1	9.582173767E0	9.733787139E0
1.292281217E1	-2.144739990E0	1.999841309E-1	9.613608398E0	9.851972884E0
1.293277617E1	-1.663490753E0	1.848655701E-1	9.558373260E0	9.703807302E0
1.294274017E1	-2.144290924E0	1.923500061E-1	9.686656494E0	9.923018499E0
1.295270317E1	-1.664089508E0	1.655557251E-1	9.452992401E0	9.599774368E0
1.296266717E1	-2.176923065E0	2.270777893E-1	9.736652527E0	9.979627287E0
1.297263117E1	-1.596579895E0	1.447489929E-1	9.391021271E0	9.526872527E0
1.298259417E1	-2.178869019E0	2.282752991E-1	9.794132996E0	1.003616565E1
1.299255817E1	-1.729353790E0	1.362167358E-1	9.485923920E0	9.643234527E0
1.300252217E1	-2.058668976E0	2.125579834E-1	9.769284668E0	9.986101430E0
1.301248517E1	-1.765877838E0	1.625619507E-1	9.460925903E0	9.625688021E0
1.302244917E1	-2.004930725E0	1.935475159E-1	9.753118286E0	9.958941920E0
1.303241317E1	-1.824256439E0	1.595681763E-1	9.483828278E0	9.659004729E0
1.304237617E1	-1.951192474E0	2.171983337E-1	9.734407196E0	9.930408383E0
1.305234017E1	-1.939816132E0	1.630110168E-1	9.501341858E0	9.698709003E0
1.306230417E1	-1.811083832E0	2.044747925E-1	9.688901825E0	9.858836298E0
1.307226717E1	-2.015708313E0	1.631607056E-1	9.520502014E0	9.732916316E0
1.308223117E1	-1.760339355E0	1.797761536E-1	9.617799683E0	9.779222098E0
1.309219517E1	-2.074985046E0	1.977388000E-1	9.602082367E0	9.825713682E0
1.310215817E1	-1.665586395E0	1.782792664E-1	9.604028320E0	9.749016438E0
1.311212217E1	-2.115401001E0	2.028282166E-1	9.634714508E0	9.866295370E0
1.312208617E1	-1.608554993E0	1.770817566E-1	9.549391937E0	9.685540433E0
1.313204917E1	-2.186802521E0	2.234852600E-1	9.710606689E0	9.956301181E0
1.314201317E1	-1.627864838E0	1.722917175E-1	9.442364502E0	9.583208009E0
1.315197717E1	-2.162552948E0	2.240840149E-1	9.740843811E0	9.980525389E0
1.316194017E1	-1.653461609E0	1.709445190E-1	9.521998901E0	9.666003331E0
1.317190417E1	-2.092498627E0	2.151026917E-1	9.784852295E0	1.000840417E1
1.318186817E1	-1.722468109E0	1.606159973E-1	9.421557770E0	9.579062830E0
1.319183117E1	-2.080822906E0	2.415975952E-1	9.789342957E0	1.001096543E1
1.320179517E1	-1.700763245E0	1.549278259E-1	9.447154541E0	9.600277453E0
1.321175917E1	-2.008822632E0	2.387535095E-1	9.714348907E0	9.922748929E0
1.322172217E1	-1.841919708E0	1.731898499E-1	9.527387695E0	9.705347971E0
1.323168617E1	-1.893262939E0	2.122586060E-1	9.692644043E0	9.878099352E0
1.324165017E1	-1.928739166E0	1.969903564E-1	9.553433533E0	9.748175841E0
1.325161317E1	-1.806443481E0	1.995350647E-1	9.613159332E0	9.783449527E0
1.326157717E1	-1.979633331E0	2.110610962E-1	9.608668671E0	9.812747247E0
1.327154117E1	-1.734592896E0	2.209405518E-1	9.633217621E0	9.790633737E0
1.328150417E1	-2.071242828E0	2.046244812E-1	9.631421356E0	9.853740172E0
1.329146817E1	-1.672023010E0	1.927990723E-1	9.589358826E0	9.735945517E0
1.330143217E1	-2.125729523E0	2.369572449E-1	9.700278168E0	9.933291059E0
1.331139517E1	-1.607058105E0	1.770817566E-1	9.446256409E0	9.583619037E0
1.332135917E1	-2.183958435E0	2.420466614E-1	9.757908325E0	1.000225154E1
1.333132317E1	-1.629062347E0	1.839674377E-1	9.532776489E0	9.672720183E0
1.334128617E1	-2.122136993E0	2.339634705E-1	9.783954163E0	1.001418810E1
1.335125017E1	-1.610351257E0	1.836680603E-1	9.394913177E0	9.533695964E0
1.336121417E1	-2.070344696E0	2.350112915E-1	9.808203735E0	1.002708422E1
1.337117717E1	-1.720073090E0	1.651066589E-1	9.438771973E0	9.595641093E0
1.338114117E1	-2.035167847E0	2.415975952E-1	9.728269958E0	9.941806372E0
1.339110517E1	-1.822609863E0	1.917512512E-1	9.491612091E0	9.666921710E0
1.340106817E1	-1.874551849E0	2.305206299E-1	9.720935211E0	9.902710022E0
1.341103217E1	-1.854044495E0	1.853146362E-1	9.491163025E0	9.672331574E0
1.342099554E1	-1.892215118E0	2.318678284E-1	9.702822876E0	9.888327083E0
1.343095854E1	-1.981130219E0	2.231858826E-1	9.606123962E0	9.810825983E0
1.344092254E1	-1.723066864E0	2.185455322E-1	9.660161591E0	9.815062074E0
1.345088654E1	-2.071093140E0	2.053729248E-1	9.614955597E0	9.837630607E0
1.346084954E1	-1.663041687E0	2.182461548E-1	9.576934662E0	9.722706236E0
1.347081354E1	-2.133663025E0	2.281256104E-1	9.681417389E0	9.916370397E0
1.348077754E1	-1.641486511E0	1.984872437E-1	9.456135864E0	9.599603150E0
1.349074054E1	-2.123484192E0	2.583627319E-1	9.762698364E0	9.994309169E0
1.350070454E1	-1.618434448E0	1.854643250E-1	9.497449951E0	9.636144595E0
1.351066854E1	-2.139800262E0	2.712359619E-1	9.726773071E0	9.963053171E0
1.352063154E1	-1.636995850E0	1.856140137E-1	9.472152557E0	9.614358119E0
1.353059554E1	-2.094145203E0	2.627037048E-1	9.777966614E0	1.000315393E1
1.354055954E1	-1.680255890E0	2.013313293E-1	9.469757538E0	9.619776608E0
1.355052254E1	-2.043251038E0	2.670446777E-1	9.753267975E0	9.968571806E0
1.356048654E1	-1.832788696E0	2.207908630E-1	9.459429016E0	9.637876339E0
1.357045054E1	-1.887874146E0	2.621049500E-1	9.765991516E0	9.950244122E0
1.358041354E1	-1.914518738E0	2.152523804E-1	9.460476837E0	9.654653674E0
1.359037754E1	-1.808239746E0	2.468367004E-1	9.739945679E0	9.909450094E0
1.360034154E1	-2.002984772E0	2.186952209E-1	9.554481354E0	9.764624393E0
1.361030454E1	-1.704954529E0	2.456391907E-1	9.628128204E0	9.781005126E0
1.362026854E1	-2.104922791E0	2.315684509E-1	9.623637543E0	9.853868451E0
1.363023254E1	-1.618284760E0	2.128573608E-1	9.588161316E0	9.726098459E0
1.364019554E1	-2.220632172E0	2.679428101E-1	9.631870422E0	9.888171136E0
1.365015954E1	-1.581910400E0	2.314187622E-1	9.509425049E0	9.642881308E0
1.366012354E1	-2.199076996E0	2.814147949E-1	9.673932953E0	9.924722298E0
1.367008654E1	-1.560205536E0	2.270777893E-1	9.536668396E0	9.666118649E0
1.368005054E1	-2.234852600E0	2.615061951E-1	9.742789764E0	9.999245173E0
1.369001454E1	-1.625918884E0	2.276765442E-1	9.470056915E0	9.611317641E0
1.369997754E1	-2.138003998E0	2.716850281E-1	9.787097626E0	1.002158439E1
1.370994154E1	-1.689087524E0	2.100132751E-1	9.443112946E0	9.595285527E0
1.371990554E1	-2.076332245E0	2.656974792E-1	9.765243073E0	9.987077801E0
1.372986854E1	-1.807940369E0	2.041754150E-1	9.462422791E0	9.635755344E0
1.373983254E1	-1.930685120E0	2.630030823E-1	9.774523773E0	9.966846575E0
1.374979654E1	-1.901495819E0	1.999841309E-1	9.484876099E0	9.675668174E0
1.375975954E1	-1.832040253E0	2.435435486E-1	9.667646027E0	9.842716324E0
1.376972354E1	-2.073188782E0	2.330653381E-1	9.533674622E0	9.759271641E0
1.377968754E1	-1.696422272E0	2.415975952E-1	9.643246765E0	9.794305800E0
1.378965054E1	-2.120640106E0	2.351609802E-1	9.554331665E0	9.789671532E0
1.379961454E1	-1.613345032E0	2.622546387E-1	9.613608398E0	9.751570444E0
1.380957854E1	-2.227667542E0	2.435435486E-1	9.633666687E0	9.890872053E0
1.381954154E1	-1.611548767E0	2.414479065E-1	9.486822052E0	9.625756031E0
1.382950554E1	-2.283800812E0	2.498304749E-1	9.699529724E0	9.967900395E0
1.383946954E1	-1.586251373E0	2.344125366E-1	9.524543610E0	9.658575134E0
1.384943254E1	-2.212249603E0	2.547702026E-1	9.751771088E0	1.000279938E1
1.385939654E1	-1.616638184E0	2.359094238E-1	9.435628510E0	9.576025148E0
1.386936054E1	-2.155816956E0	2.656974792E-1	9.772128754E0	1.001062647E1
1.387932354E1	-1.706601105E0	2.445913696E-1	9.427844696E0	9.584183214E0
1.388928754E1	-2.045047302E0	2.553689575E-1	9.733059998E0	9.948863688E0
1.389925154E1	-1.870659943E0	2.264790344E-1	9.469458160E0	9.655117774E0
1.390921454E1	-1.878892822E0	2.707868958E-1	9.772278442E0	9.954948003E0
1.391917854E1	-1.999691620E0	1.914518738E-1	9.441616058E0	9.652954687E0
1.392914254E1	-1.803449707E0	2.823129272E-1	9.712253265E0	9.882307166E0
1.393910554E1	-2.095941467E0	2.082170105E-1	9.539811859E0	9.769561672E0
1.394906954E1	-1.694925385E0	2.679428101E-1	9.647288361E0	9.798711044E0
1.395903354E1	-2.195783844E0	2.151026917E-1	9.566755829E0	9.817869063E0
1.396899654E1	-1.582209778E0	2.490820312E-1	9.591903534E0	9.724713006E0
1.397896054E1	-2.249821472E0	2.496807861E-1	9.654922485E0	9.916731586E0
1.398892454E1	-1.564097443E0	2.532733154E-1	9.459728394E0	9.591507153E0
1.399888854E1	-2.249222717E0	2.534230042E-1	9.723180542E0	9.983159114E0
1.400885154E1	-1.658850403E0	2.350112915E-1	9.482780457E0	9.629649015E0
1.401881554E1	-2.164049835E0	2.674937439E-1	9.731712799E0	9.973008503E0
1.402877954E1	-1.719773712E0	2.360591125E-1	9.425599365E0	9.584115448E0
1.403874254E1	-2.067051544E0	2.731819153E-1	9.715396729E0	9.936612302E0
1.404870654E1	-1.793121185E0	2.165995789E-1	9.425000610E0	9.596501210E0
1.405867054E1	-1.946103058E0	2.700384521E-1	9.697883148E0	9.894906540E0
1.406863354E1	-1.972298584E0	2.161505127E-1	9.442663879E0	9.648864383E0
1.407859754E1	-1.847009125E0	2.956352234E-1	9.716743927E0	9.895148075E0
1.408856154E1	-2.044448547E0	2.064207458E-1	9.477990417E0	9.698179300E0
1.409852454E1	-1.755100250E0	2.784210205E-1	9.644593964E0	9.806940801E0
1.410848854E1	-2.140249329E0	2.192939758E-1	9.567953339E0	9.806859239E0
1.411845254E1	-1.716330872E0	2.950364685E-1	9.590706024E0	9.747537136E0
1.412841554E1	-2.125280457E0	2.338137817E-1	9.604926453E0	9.840025308E0
1.413837954E1	-1.674268341E0	2.436932373E-1	9.558672638E0	9.707254167E0
1.414834354E1	-2.177821198E0	2.697390747E-1	9.684261475E0	9.929782709E0
1.415830654E1	-1.704954529E0	2.404000854E-1	9.457183685E0	9.612647159E0
1.416827054E1	-2.146087189E0	2.959346008E-1	9.695039063E0	9.934135591E0
1.417823454E1	-1.720821533E0	2.198927307E-1	9.459728394E0	9.617486202E0
1.418819754E1	-2.074386292E0	3.089575195E-1	9.721683655E0	9.945333897E0
1.419816154E1	-1.810934143E0	2.157014465E-1	9.380992126E0	9.556621938E0
1.420812554E1	-2.000739441E0	2.959346008E-1	9.757758636E0	9.965158765E0
1.421808854E1	-1.854194183E0	2.275268555E-1	9.399553528E0	9.583392461E0
1.422805254E1	-1.879790955E0	2.909948730E-1	9.688452759E0	9.873419312E0
1.423801654E1	-2.048639832E0	2.059716797E-1	9.514215088E0	9.734456237E0
1.424797954E1	-1.802701263E0	3.194357300E-1	9.622739410E0	9.795350162E0
1.425794354E1	-2.096989288E0	2.393522644E-1	9.556427307E0	9.786723479E0
1.426790754E1	-1.691183167E0	2.613565063E-1	9.546248474E0	9.698415729E0
1.427787054E1	-2.167642365E0	2.700384521E-1	9.644144897E0	9.888433900E0
1.428783454E1	-1.707499237E0	2.550695801E-1	9.539662170E0	9.694625751E0
1.429779854E1	-2.150278473E0	2.697390747E-1	9.641151123E0	9.881712992E0
1.430776154E1	-1.646875305E0	2.251318359E-1	9.479187927E0	9.623818700E0
1.431772554E1	-2.136357422E0	2.812651062E-1	9.715995483E0	9.952070203E0
1.432768954E1	-1.714983673E0	2.318678284E-1	9.383387146E0	9.541639588E0
1.433765254E1	-2.113455048E0	3.252735901E-1	9.695488129E0	9.928493602E0
1.434761654E1	-1.793121185E0	2.160008240E-1	9.415270844E0	9.586931991E0
1.435758054E1	-1.996997223E0	3.300636292E-1	9.759105835E0	9.966799216E0
1.436754354E1	-1.847009125E0	2.101629639E-1	9.399254150E0	9.581314616E0
1.437750754E1	-1.944157104E0	3.152444458E-1	9.698481903E0	9.896447703E0
1.438747154E1	-1.934876404E0	2.311193848E-1	9.473200378E0	9.671540119E0
1.439743454E1	-1.838925934E0	2.865042114E-1	9.615853729E0	9.794303252E0
1.440739854E1	-2.090702362E0	2.628533936E-1	9.546697540E0	9.776480052E0
1.441736254E1	-1.728156281E0	2.752775574E-1	9.582323456E0	9.740802055E0
1.442732188E1	-2.111060028E0	2.805166626E-1	9.582024078E0	9.815826480E0
1.443728587E1	-1.670975189E0	2.511776733E-1	9.497300262E0	9.646448081E0
1.444724987E1	-2.162253571E0	2.809657288E-1	9.643546143E0	9.886974484E0
1.445721287E1	-1.679357758E0	2.402503967E-1	9.440717926E0	9.591929821E0
1.446717687E1	-2.122136993E0	3.089575195E-1	9.719588013E0	9.953356786E0
1.447714087E1	-1.703906708E0	1.972897339E-1	9.401649170E0	9.556841969E0
1.448710387E1	-2.062710571E0	3.381468201E-1	9.741592255E0	9.963319619E0
1.449706787E1	-1.779649200E0	2.140548706E-1	9.422904968E0	9.591877231E0
1.450703187E1	-2.000889130E0	3.206332397E-1	9.629176025E0	9.840091154E0
1.451699487E1	-1.880838776E0	2.149530029E-1	9.479786682E0	9.666959958E0
1.452695888E1	-1.910776520E0	2.815644836E-1	9.683812408E0	9.874541419E0
1.453692287E1	-1.954785004E0	2.519261169E-1	9.519454193E0	9.721350694E0
1.454688687E1	-1.837279358E0	2.814147949E-1	9.616751862E0	9.794728485E0
1.455684987E1	-2.016157379E0	2.585124207E-1	9.550589447E0	9.764500911E0
1.456681387E1	-1.708397369E0	2.814147949E-1	9.534572754E0	9.690505325E0
1.457677787E1	-2.126028900E0	2.502795410E-1	9.597741394E0	9.833579135E0
1.458674087E1	-1.714384918E0	2.405497742E-1	9.489516449E0	9.646134059E0
1.459670488E1	-2.113005981E0	2.911445618E-1	9.693242798E0	9.925145610E0
1.460666887E1	-1.612297211E0	2.139051819E-1	9.370513916E0	9.510614532E0
1.461663187E1	-2.139800262E0	2.978805542E-1	9.717492371E0	9.954754440E0
1.462659587E1	-1.694626007E0	2.327659607E-1	9.414073334E0	9.568213732E0
1.463655987E1	-2.140249329E0	3.327580261E-1	9.715396729E0	9.953910221E0
1.464652287E1	-1.713935852E0	2.049238586E-1	9.424102478E0	9.580880826E0
1.465648687E1	-1.993853760E0	2.929408264E-1	9.707463226E0	9.914439441E0
1.466645087E1	-1.814077606E0	2.157014465E-1	9.447902985E0	9.622903693E0
1.467641387E1	-1.952389984E0	2.902464294E-1	9.620643768E0	9.821041501E0
1.468637787E1	-1.928140411E0	2.305206299E-1	9.479636993E0	9.676486074E0
1.469634188E1	-1.845811615E0	2.755769348E-1	9.622889099E0	9.802191478E0
1.470630487E1	-1.977687378E0	2.386038208E-1	9.609866180E0	9.814158505E0
1.471626887E1	-1.765578461E0	2.493814087E-1	9.478289795E0	9.644554724E0
1.472623287E1	-2.114802246E0	2.835104370E-1	9.693242798E0	9.925307181E0
1.473619587E1	-1.640738068E0	2.287243652E-1	9.423054657E0	9.567564753E0
1.474615987E1	-2.091600494E0	2.868035889E-1	9.658515015E0	9.886554567E0
1.475612387E1	-1.688638458E0	2.013313293E-1	9.428742828E0	9.580878116E0
1.476608687E1	-2.062710571E0	2.887495422E-1	9.720336456E0	9.940980436E0
1.477605087E1	-1.750310211E0	1.951940918E-1	9.403295746E0	9.566799750E0
1.478601487E1	-1.995949402E0	2.766247559E-1	9.663155365E0	9.871013468E0
1.479597788E1	-1.849553833E0	2.046244812E-1	9.457932129E0	9.639253120E0
1.480594187E1	-1.928290100E0	3.053649902E-1	9.663754120E0	9.858990525E0
1.481590587E1	-1.878593445E0	2.074685669E-1	9.476792908E0	9.663423842E0
1.482586887E1	-1.841620331E0	2.766247559E-1	9.663903809E0	9.841703283E0
1.483583287E1	-1.946552124E0	2.299218750E-1	9.477840729E0	9.678398324E0
1.484579687E1	-1.783690796E0	2.472857666E-1	9.536518707E0	9.705044676E0
1.485575987E1	-2.050585785E0	2.442919922E-1	9.559121704E0	9.779641527E0
1.486572388E1	-1.717378693E0	2.540217590E-1	9.533375244E0	9.690157902E0
1.487568787E1	-2.073488159E0	2.492317200E-1	9.717941437E0	9.939811636E0
1.488565087E1	-1.710043945E0	2.104623413E-1	9.422306213E0	9.578538462E0
1.489561487E1	-2.067949677E0	2.809657288E-1	9.692943420E0	9.915064788E0
1.490557887E1	-1.696422272E0	1.892065430E-1	9.427695007E0	9.580974939E0
1.491554187E1	-2.014211426E0	2.665956116E-1	9.690997467E0	9.901694441E0
1.492550587E1	-1.823807373E0	1.704954529E-1	9.461374969E0	9.637061707E0
1.493546987E1	-1.976489868E0	3.100053406E-1	9.706116028E0	9.910161646E0
1.494543287E1	-1.832788696E0	1.740879822E-1	9.484127655E0	9.661164444E0
1.495539687E1	-1.849703522E0	2.484832764E-1	9.599986725E0	9.779718410E0
1.496536088E1	-1.925296326E0	2.182461548E-1	9.558822327E0	9.753229291E0
1.497532387E1	-1.852098541E0	2.665956116E-1	9.596244507E0	9.776975548E0
1.498528787E1	-2.004631348E0	2.351609802E-1	9.567803650E0	9.778379938E0
1.499525187E1	-1.728156281E0	2.282752991E-1	9.553882599E0	9.711606791E0
1.500521487E1	-2.037263489E0	2.303709412E-1	9.632020111E0	9.847808117E0
1.501517887E1	-1.714085541E0	2.294728088E-1	9.458830261E0	9.615623585E0
1.502514287E1	-2.083217926E0	2.451901245E-1	9.643396454E0	9.868891037E0
1.503510587E1	-1.753902740E0	2.094145203E-1	9.484427032E0	9.647506693E0
1.504506987E1	-1.982776794E0	2.612068176E-1	9.739496613E0	9.942707231E0
1.505503387E1	-1.781744843E0	1.586700439E-1	9.457932129E0	9.625604969E0
1.506499688E1	-1.971849518E0	2.936892700E-1	9.679920502E0	9.883081747E0
1.507496087E1	-1.783241730E0	1.715432739E-1	9.477092285E0	9.644929048E0
1.508492487E1	-1.926643524E0	2.472857666E-1	9.663005676E0	9.856306825E0
1.509488887E1	-1.890718231E0	1.597178650E-1	9.512119446E0	9.699522750E0
1.510485187E1	-1.898052979E0	2.755769348E-1	9.724078674E0	9.911420374E0
1.511481587E1	-1.966909790E0	1.812730408E-1	9.541757812E0	9.744061586E0
1.512477987E1	-1.779798889E0	2.398013306E-1	9.580527191E0	9.747394012E0
1.513474288E1	-1.992356873E0	2.128573608E-1	9.607920227E0	9.814628126E0
1.514470687E1	-1.762884064E0	2.260299683E-1	9.529034271E0	9.693365974E0
1.515467087E1	-2.053729248E0	2.505789185E-1	9.679920502E0	9.898558205E0
1.516463388E1	-1.685195618E0	1.736389160E-1	9.496701508E0	9.646625019E0
1.517459787E1	-2.079026642E0	2.607577515E-1	9.693093109E0	9.916975366E0
1.518456187E1	-1.711540833E0	1.619631958E-1	9.475745087E0	9.630438674E0
1.519452487E1	-2.076931000E0	2.661465454E-1	9.630223846E0	9.855236562E0
1.520448887E1	-1.775457916E0	1.773811340E-1	9.506880341E0	9.672873859E0
1.521445287E1	-1.974244537E0	2.689906311E-1	9.722432098E0	9.924499149E0
1.522441587E1	-1.837429047E0	1.591191101E-1	9.552984467E0	9.729387268E0
1.523437988E1	-1.924547882E0	2.520758057E-1	9.668693848E0	9.861595585E0
1.524434387E1	-1.891466675E0	1.728904724E-1	9.559121704E0	9.745991230E0
1.525430687E1	-1.839375000E0	2.377056885E-1	9.586365051E0	9.764128188E0
1.526427087E1	-1.985620880E0	1.847158813E-1	9.601782990E0	9.806683783E0
1.527423487E1	-1.862127686E0	2.398013306E-1	9.589807892E0	9.771869811E0
1.528419787E1	-1.979783020E0	2.374063110E-1	9.605076141E0	9.809861887E0
1.529416187E1	-1.749112701E0	1.770817566E-1	9.560768280E0	9.721061840E0
1.530412588E1	-1.996548157E0	2.320175171E-1	9.610165558E0	9.818111770E0
1.531408887E1	-1.755549316E0	1.872605896E-1	9.545350342E0	9.707251572E0
1.532405287E1	-2.060914307E0	2.532733154E-1	9.649084625E0	9.869972100E0
1.533401688E1	-1.768422546E0	1.612147522E-1	9.531728668E0	9.695728952E0
1.534397987E1	-1.993105316E0	2.492317200E-1	9.734257507E0	9.939333704E0
1.535394387E1	-1.777104492E0	1.576222229E-1	9.486672363E0	9.652973514E0
1.536390787E1	-2.031874695E0	2.715353394E-1	9.679022369E0	9.893721254E0
1.537387087E1	-1.834884338E0	1.499880981E-1	9.502090302E0	9.678792128E0
1.538383487E1	-1.968256989E0	2.692900085E-1	9.704619141E0	9.905866209E0
1.539379887E1	-1.827100525E0	1.752854919E-1	9.592951355E0	9.766971743E0
1.540376188E1	-1.914069672E0	2.113604736E-1	9.579329681E0	9.770971963E0
1.541372587E1	-1.939666443E0	2.305206299E-1	9.635762329E0	9.831752709E0
1.542368942E1	-1.817071381E0	1.850152588E-1	9.519304504E0	9.692942654E0
1.543365242E1	-1.998494110E0	2.350112915E-1	9.626182251E0	9.834256136E0
1.544361642E1	-1.796114960E0	1.859133911E-1	9.575138397E0	9.743914412E0
1.545358042E1	-2.008074188E0	2.544708252E-1	9.653724976E0	9.863646549E0
1.546354342E1	-1.830094299E0	1.878593445E-1	9.514813843E0	9.691038063E0
1.547350742E1	-1.958377533E0	2.305206299E-1	9.650731201E0	9.850126651E0
1.548347142E1	-1.833986206E0	1.670526123E-1	9.537716217E0	9.713878866E0
1.549343442E1	-1.994452515E0	2.728825378E-1	9.706116028E0	9.912668362E0
1.550339842E1	-1.819915466E0	1.450483704E-1	9.533075867E0	9.706320972E0
1.551336242E1	-1.991608429E0	2.595602417E-1	9.674082642E0	9.880371987E0
1.552332542E1	-1.847607880E0	1.757345581E-1	9.560169525E0	9.738653853E0
1.553328942E1	-1.939666443E0	2.492317200E-1	9.619745636E0	9.816513050E0
1.554325342E1	-1.901046753E0	1.978884888E-1	9.507778473E0	9.697988972E0
1.555321642E1	-1.882784729E0	2.186952209E-1	9.644593964E0	9.829084325E0
1.556318042E1	-1.952240295E0	2.067201233E-1	9.622140656E0	9.820364870E0
1.557314442E1	-1.824855194E0	2.011816406E-1	9.580676880E0	9.754995644E0
1.558310842E1	-1.998045044E0	2.321672058E-1	9.626182251E0	9.834097332E0
1.559307142E1	-1.768422546E0	1.893562317E-1	9.520951080E0	9.685643167E0
1.560303542E1	-2.031275940E0	2.520758057E-1	9.611812134E0	9.827337211E0
1.561299942E1	-1.804497528E0	1.631607056E-1	9.522148590E0	9.692994714E0
1.562296242E1	-2.039508820E0	2.933898926E-1	9.724527740E0	9.940428242E0
1.563292642E1	-1.778900757E0	1.688488770E-1	9.487720184E0	9.654523921E0
1.564289042E1	-1.996099091E0	2.516267395E-1	9.681118011E0	9.887961041E0
1.565285342E1	-1.830842743E0	1.734892273E-1	9.525292053E0	9.701199532E0
1.566281742E1	-1.961371307E0	2.802172852E-1	9.632169800E0	9.833829070E0
1.567278142E1	-1.875899048E0	1.916015625E-1	9.596843262E0	9.780342989E0
1.568274442E1	-1.877845001E0	2.415975952E-1	9.603728943E0	9.788579103E0
1.569270842E1	-1.941462708E0	2.189945984E-1	9.626781006E0	9.823041719E0
1.570267242E1	-1.869163055E0	2.058219910E-1	9.549242249E0	9.732633803E0
1.571263542E1	-1.966760101E0	2.353106689E-1	9.580078125E0	9.782709915E0
1.572259942E1	-1.823358307E0	1.987866211E-1	9.556277618E0	9.730703652E0
1.573256342E1	-1.978286133E0	2.514770508E-1	9.673932953E0	9.877339495E0
1.574252642E1	-1.851948853E0	1.664538574E-1	9.565708008E0	9.744751979E0
1.575249042E1	-1.990410919E0	2.818638611E-1	9.612859955E0	9.820807471E0
1.576245442E1	-1.790576477E0	1.942959595E-1	9.534572754E0	9.703194971E0
1.577241742E1	-1.937421112E0	2.721340942E-1	9.613009644E0	9.810077061E0
1.578238142E1	-1.845362549E0	1.697470093E-1	9.522447968E0	9.701092324E0
1.579234542E1	-1.989213409E0	2.719844055E-1	9.670340424E0	9.876559594E0
1.580230842E1	-1.882036285E0	2.025288391E-1	9.539662170E0	9.725648196E0
1.581227242E1	-1.882335663E0	2.447410583E-1	9.605824585E0	9.791575547E0
1.582223642E1	-1.891167297E0	2.001338196E-1	9.575737152E0	9.762751113E0
1.583219942E1	-1.908980255E0	2.484832764E-1	9.607022095E0	9.798000974E0
1.584216342E1	-1.931283875E0	2.460882568E-1	9.580676880E0	9.776491513E0
1.585212742E1	-1.842967529E0	2.152523804E-1	9.571246490E0	9.749442152E0
1.586209042E1	-1.915267181E0	2.564167786E-1	9.631421356E0	9.823353566E0
1.587205442E1	-1.848056946E0	1.933978271E-1	9.517059174E0	9.696758866E0
1.588201842E1	-1.976938934E0	2.639012146E-1	9.622589722E0	9.827113735E0
1.589198142E1	-1.837129669E0	1.821711731E-1	9.514215088E0	9.691672740E0
1.590194542E1	-1.939367065E0	2.969824219E-1	9.731263733E0	9.927075955E0
1.591190942E1	-1.822609863E0	1.609153748E-1	9.567354584E0	9.740743001E0
1.592187242E1	-1.956281891E0	2.885998535E-1	9.592502289E0	9.794203841E0
1.593183642E1	-1.867067413E0	2.064207458E-1	9.574240265E0	9.756773386E0
1.594180042E1	-1.878593445E0	2.619552612E-1	9.548793182E0	9.735357473E0
1.595176342E1	-1.902843018E0	2.005828857E-1	9.576784973E0	9.766056290E0
1.596172742E1	-1.886976013E0	2.540217590E-1	9.605974274E0	9.792851846E0
1.597169142E1	-1.914219360E0	2.582130432E-1	9.593101044E0	9.785627081E0
1.598165442E1	-1.847458191E0	2.168989563E-1	9.579479370E0	9.758410318E0
1.599161842E1	-1.911225586E0	2.484832764E-1	9.536518707E0	9.729322496E0
1.600158242E1	-1.860181732E0	2.409988403E-1	9.594148865E0	9.775788917E0
1.601154542E1	-1.930236053E0	2.809657288E-1	9.583820343E0	9.780304971E0
1.602150942E1	-1.826801147E0	2.001338196E-1	9.566456451E0	9.741372851E0
1.603147342E1	-1.950144653E0	2.727328491E-1	9.650282135E0	9.849131569E0
1.604143642E1	-1.811233521E0	1.821711731E-1	9.553433533E0	9.725319813E0
1.605140042E1	-1.968406677E0	2.936892700E-1	9.591753845E0	9.796051248E0
1.606136442E1	-1.814526672E0	1.884580994E-1	9.530231781E0	9.703264466E0
1.607132742E1	-1.983674927E0	3.046165466E-1	9.663305054E0	9.869509715E0
1.608129142E1	-1.841620331E0	1.929487610E-1	9.584868164E0	9.762094672E0
1.609125542E1	-1.925296326E0	2.824626160E-1	9.625284119E0	9.820012497E0
1.610121842E1	-1.809137878E0	2.344125366E-1	9.539811859E0	9.712669016E0
1.611118242E1	-1.899998932E0	2.495310974E-1	9.583520966E0	9.773235688E0
1.612114642E1	-1.852846985E0	2.104623413E-1	9.552984467E0	9.733285600E0
1.613111042E1	-1.937570801E0	2.430944824E-1	9.614656219E0	9.810957637E0
1.614107342E1	-1.866019592E0	2.761756897E-1	9.636061707E0	9.818960604E0
1.615103742E1	-1.898052979E0	2.073188782E-1	9.492809601E0	9.682924163E0
1.616100142E1	-1.855391693E0	2.897973633E-1	9.602980499E0	9.784870736E0
1.617096442E1	-1.886377258E0	1.963916016E-1	9.543105011E0	9.729740082E0
1.618092842E1	-1.932032318E0	3.088078308E-1	9.621092834E0	9.818021108E0
1.619089242E1	-1.845811615E0	1.908531189E-1	9.573192444E0	9.751382415E0
1.620085542E1	-1.886676636E0	2.742297363E-1	9.655221863E0	9.841649247E0
1.621081942E1	-1.867217102E0	2.103126526E-1	9.591454468E0	9.773777669E0
1.622078342E1	-1.925595703E0	2.817141724E-1	9.563312988E0	9.759315396E0
1.623074642E1	-1.854194183E0	2.227368164E-1	9.504036255E0	9.685780965E0
1.624071042E1	-1.920805664E0	2.885998535E-1	9.675729218E0	9.868764875E0
1.625067442E1	-1.807940369E0	2.338137817E-1	9.570348358E0	9.742427057E0
1.626063742E1	-1.987117767E0	2.406994629E-1	9.667496338E0	9.872540640E0
1.627060142E1	-1.815424805E0	2.583627319E-1	9.503886566E0	9.679172402E0
1.628056542E1	-1.908381500E0	2.324665833E-1	9.626631317E0	9.816719981E0
1.629052842E1	-1.799557800E0	2.595602417E-1	9.542057190E0	9.713734360E0
1.630049242E1	-1.976040802E0	2.029779053E-1	9.642498322E0	9.844984061E0
1.631045642E1	-1.872156830E0	3.165916443E-1	9.625882874E0	9.811361912E0
1.632041942E1	-1.912572784E0	2.142045593E-1	9.593550110E0	9.784683028E0
1.633038342E1	-1.827100525E0	2.776725769E-1	9.611512756E0	9.787572521E0
1.634034742E1	-1.903890839E0	1.966909790E-1	9.593250732E0	9.782328316E0
1.635031042E1	-1.916015625E0	2.844085693E-1	9.643246765E0	9.835863576E0
1.636027442E1	-1.877695312E0	2.043251038E-1	9.543853455E0	9.728958176E0
1.637023842E1	-1.867815857E0	2.755769348E-1	9.693991241E0	9.876140183E0
1.638020142E1	-1.836231537E0	2.035766602E-1	9.564809875E0	9.741600365E0
1.639016542E1	-1.936972046E0	2.779719543E-1	9.664801941E0	9.860908968E0
1.640012942E1	-1.846709747E0	2.320175171E-1	9.480684814E0	9.661653770E0
1.641009242E1	-1.908980255E0	2.384541321E-1	9.641001434E0	9.831071897E0
1.642005642E1	-1.856888580E0	2.420466614E-1	9.606123962E0	9.786942289E0
1.643002067E1	-1.901795197E0	2.010319519E-1	9.634115753E0	9.822088635E0
1.643998367E1	-1.889670410E0	2.725831604E-1	9.598639526E0	9.786676484E0
1.644994767E1	-1.821861420E0	1.913021851E-1	9.612410889E0	9.785408456E0
1.645991167E1	-1.852248230E0	2.653981018E-1	9.540560303E0	9.722322282E0
1.646987467E1	-1.892514496E0	1.996847534E-1	9.645342407E0	9.831282484E0
1.647983867E1	-1.950893097E0	2.900967407E-1	9.655371552E0	9.854762290E0
1.648980267E1	-1.825304260E0	2.034269714E-1	9.629026337E0	9.802615282E0
1.649976567E1	-1.924547882E0	2.481838989E-1	9.677525482E0	9.870155989E0
1.650972967E1	-1.775457916E0	1.666035461E-1	9.533075867E0	9.698429926E0
1.651969367E1	-2.010169830E0	2.944377136E-1	9.696685638E0	9.907229112E0
1.652965667E1	-1.774260406E0	2.034269714E-1	9.541009369E0	9.706711199E0
1.653962067E1	-1.966610413E0	2.375559998E-1	9.719887390E0	9.919687507E0
1.654958467E1	-1.774709473E0	2.240840149E-1	9.560319214E0	9.726227986E0
1.655954767E1	-1.962718506E0	2.383044434E-1	9.677974548E0	9.877866384E0
