"Time (s)","Gyroscope x (rad/s)","Gyroscope y (rad/s)","Gyroscope z (rad/s)","Absolute (rad/s)"
0.000000000E0,-9.314492345E-2,-2.058733106E-1,-4.654344171E-2,2.307077995E-1
9.961999953E-3,-8.255273104E-2,-1.771822572E-1,-4.150021076E-2,1.998268579E-1
1.992499991E-2,-7.201573998E-2,-1.547332704E-1,-3.152985871E-2,1.735591650E-1
2.988699998E-2,-6.581749767E-2,-1.107096151E-1,-2.935378999E-2,1.320992311E-1
3.984999994E-2,-6.763033569E-2,-8.089699596E-2,-2.399285324E-2,1.081380750E-1
4.981200001E-2,-6.463454664E-2,-4.810442775E-2,-2.337579802E-2,8.389331631E-2
5.977499997E-2,-5.936609581E-2,-2.658817731E-2,-2.288920805E-2,6.895781572E-2
6.973699993E-2,-5.763876811E-2,3.343355609E-3,-2.321145125E-2,6.222681966E-2
7.970000000E-2,-5.951569974E-2,3.898328915E-2,-2.181379683E-2,7.441543577E-2
8.966199995E-2,-5.394623429E-2,6.435282528E-2,-1.978233829E-2,8.627179854E-2
9.962499992E-2,-5.114799738E-2,8.849525452E-2,-2.106886171E-2,1.043619885E-1
1.095870000E-1,-4.538571835E-2,1.182749867E-1,-2.303773537E-2,1.287616914E-1
1.195499999E-1,-4.411496222E-2,1.463358104E-1,-2.149840258E-2,1.543453291E-1
1.295120000E-1,-4.595227540E-2,1.763794720E-1,-1.754041202E-2,1.831092456E-1
1.394750000E-1,-4.413142800E-2,1.872144043E-1,-1.906871237E-2,1.932884682E-1
1.494369999E-1,-3.688869625E-2,2.064070106E-1,-2.104131505E-2,2.107305551E-1
1.594000000E-1,-3.637510911E-2,2.112473845E-1,-1.791382022E-2,2.151034890E-1
1.693620000E-1,-3.640333936E-2,2.197109163E-1,-1.953994669E-2,2.235618468E-1
1.793249999E-1,-3.191787004E-2,2.222513109E-1,-2.055833675E-2,2.254707095E-1
1.892870000E-1,-2.715853415E-2,2.194712460E-1,-2.144037560E-2,2.221821404E-1
1.992499999E-1,-1.815775037E-2,2.134225368E-1,-2.056090161E-2,2.151781444E-1
2.092120000E-1,-1.323676016E-2,2.146169692E-1,-1.964424178E-2,2.159202435E-1
2.191750000E-1,-3.807860427E-3,2.083974928E-1,-1.895878650E-2,2.092927385E-1
2.291369999E-1,6.076195743E-3,2.021249533E-1,-2.074337192E-2,2.032774074E-1
2.391000000E-1,1.461252384E-2,1.986657083E-1,-1.811096631E-2,2.000239901E-1
2.490620000E-1,2.421561629E-2,1.949308962E-1,-1.846702956E-2,1.972954169E-1
2.590249999E-1,3.206528351E-2,1.849624217E-1,-1.813679747E-2,1.885953956E-1
2.689880000E-1,4.128115252E-2,1.732373238E-1,-1.468587387E-2,1.786924139E-1
2.789499999E-1,4.616352916E-2,1.588176340E-1,-1.579694450E-2,1.661434794E-1
2.889129999E-1,4.946451634E-2,1.416865885E-1,-1.554980315E-2,1.508761881E-1
2.988750000E-1,4.865593091E-2,1.227822155E-1,-1.486345194E-2,1.329052078E-1
3.088379999E-1,5.931710079E-2,8.228139579E-2,-1.007562131E-2,1.019326478E-1
3.188000000E-1,6.949710101E-2,4.615679756E-2,-5.688606761E-3,8.362210985E-2
3.287630000E-1,7.549400628E-2,-9.888743516E-4,8.872710168E-4,7.550569585E-2
3.387249999E-1,8.031139523E-2,-3.988263384E-2,1.925535500E-3,8.968975623E-2
3.486880000E-1,8.564623445E-2,-7.655249536E-2,6.922956556E-3,1.150803604E-1
3.586500000E-1,8.684518933E-2,-1.106880978E-1,7.110442966E-3,1.408705090E-1
3.686129999E-1,8.381025493E-2,-1.359425783E-1,1.114939339E-2,1.600901384E-1
3.785750000E-1,7.788045704E-2,-1.571647823E-1,9.692111984E-3,1.756703487E-1
3.885379999E-1,7.591557503E-2,-1.788671464E-1,1.103807241E-2,1.946239184E-1
3.985000000E-1,7.156945765E-2,-1.984606683E-1,1.153397746E-2,2.112861964E-1
4.084630000E-1,7.129168510E-2,-2.165017128E-1,1.127777994E-2,2.282163104E-1
4.184249999E-1,7.280429453E-2,-2.271053493E-1,1.280341111E-2,2.388330637E-1
4.283880000E-1,7.794525474E-2,-2.435511798E-1,1.247903891E-2,2.560241518E-1
4.383500000E-1,8.181467652E-2,-2.491206676E-1,1.231187209E-2,2.625001533E-1
4.483129999E-1,8.651835471E-2,-2.508674264E-1,1.118535548E-2,2.656030939E-1
4.582750000E-1,8.979339153E-2,-2.474804074E-1,1.417600550E-2,2.636481828E-1
4.682379999E-1,9.473249316E-2,-2.440345436E-1,9.218530729E-3,2.619390865E-1
4.782000000E-1,9.326524287E-2,-2.305863649E-1,1.032233238E-2,2.489478414E-1
4.881630000E-1,9.604025632E-2,-2.180149108E-1,1.129039004E-2,2.384988576E-1
4.981249999E-1,1.002699882E-1,-2.009145468E-1,9.760810062E-3,2.247576452E-1
5.080880000E-1,1.045004204E-1,-1.834202409E-1,9.944835678E-3,2.113343852E-1
5.180500000E-1,1.101106331E-1,-1.627490520E-1,7.294191048E-3,1.966336967E-1
5.280129999E-1,1.165626794E-1,-1.422115564E-1,8.308056742E-3,1.840652298E-1
5.379750000E-1,1.253218800E-1,-1.192887425E-1,6.937623024E-3,1.731574668E-1
5.479379999E-1,1.325555444E-1,-9.253250062E-2,6.232684478E-3,1.617778797E-1
5.579000000E-1,1.367515028E-1,-6.086829677E-2,6.120486185E-3,1.498111592E-1
5.678630000E-1,1.436309814E-1,-2.842487022E-2,2.525750548E-3,1.464384222E-1
5.778249999E-1,1.491439492E-1,6.901293993E-3,4.990950227E-3,1.493869305E-1
5.877880000E-1,1.510995179E-1,3.944325820E-2,1.305134967E-3,1.561683013E-1
5.977500000E-1,1.438371986E-1,7.201892138E-2,1.891214401E-3,1.608708844E-1
6.077129999E-1,1.374203116E-1,1.009546965E-1,7.529780269E-4,1.705190891E-1
6.176750000E-1,1.248162612E-1,1.294095665E-1,-1.203517430E-3,1.797981742E-1
6.276379999E-1,1.128908992E-1,1.525609493E-1,-1.985155046E-3,1.897976270E-1
6.376000000E-1,9.852822870E-2,1.737708449E-1,1.160614192E-3,1.997635238E-1
6.475630000E-1,8.413597196E-2,1.910582185E-1,-7.997378707E-4,2.087648060E-1
6.575249999E-1,7.184194773E-2,2.118846625E-1,-2.750064246E-3,2.237497229E-1
6.674880000E-1,6.242420897E-2,2.198243439E-1,-3.313056193E-3,2.285399317E-1
6.774510000E-1,4.962982982E-2,2.257137299E-1,-4.390881397E-3,2.311473290E-1
6.874129999E-1,3.622800484E-2,2.117678225E-1,-4.326699302E-3,2.148878761E-1
6.973760000E-1,-7.831685245E-2,3.944765404E-2,-8.557792753E-3,8.810722220E-2
7.073379999E-1,-3.239788115E-1,-7.442139089E-2,7.081052661E-2,3.398748952E-1
7.173009999E-1,-5.537719727E-1,-1.945805550E-1,1.469924748E-1,6.050882396E-1
7.272630000E-1,-7.389863133E-1,-3.845595419E-1,1.800574958E-1,8.522954385E-1
7.372259999E-1,-8.474956751E-1,-3.753629625E-1,1.757846177E-1,9.434227603E-1
7.471880000E-1,-8.645340204E-1,-4.408173263E-1,1.684952825E-1,9.849515967E-1
7.571510000E-1,-8.653351068E-1,-4.539748728E-1,1.487609744E-1,9.884471963E-1
7.671129999E-1,-8.548401594E-1,-3.899807036E-1,1.372129768E-1,9.495599235E-1
7.770760000E-1,-8.236748576E-1,-3.528864086E-1,1.323103309E-1,9.058008126E-1
7.870380000E-1,-7.863479853E-1,-3.016043007E-1,1.268212795E-1,8.516994453E-1
7.970009999E-1,-7.499310970E-1,-2.867137790E-1,1.227823123E-1,8.122049849E-1
8.069630000E-1,-7.323880196E-1,-2.558123469E-1,1.140926853E-1,7.841232740E-1
8.169259999E-1,-7.098645568E-1,-2.001249343E-1,1.008220911E-1,7.443942318E-1
8.268880000E-1,-6.913664937E-1,-1.696333289E-1,9.030579776E-2,7.175780320E-1
8.368510000E-1,-6.645064354E-1,-1.130808890E-1,7.781483233E-2,6.785360995E-1
8.468129999E-1,-6.406027079E-1,-8.581677824E-2,6.258634478E-2,6.493484421E-1
8.567760000E-1,-6.139967442E-1,-3.562975675E-2,4.656788334E-2,6.167901176E-1
8.667380000E-1,-5.867339373E-1,7.965123281E-3,2.588391304E-2,5.873586071E-1
8.767009999E-1,-5.337091088E-1,1.391855348E-2,-5.728829652E-3,5.339213036E-1
8.866630000E-1,-4.804043174E-1,6.607111543E-3,-5.604073405E-2,4.837070663E-1
8.966259999E-1,-4.210319519E-1,-3.201437742E-2,-1.153728962E-1,4.377256333E-1
9.065880000E-1,-3.622269630E-1,-6.643333286E-2,-1.937856823E-1,4.161425851E-1
9.165510000E-1,-3.052728176E-1,-9.832163900E-2,-2.808122039E-1,4.262794057E-1
9.265129999E-1,-2.422099411E-1,-1.458899528E-1,-3.815340102E-1,4.748870759E-1
9.364760000E-1,-1.858833730E-1,-1.923120171E-1,-4.841127396E-1,5.530837955E-1
9.464380000E-1,-1.334561110E-1,-2.340309620E-1,-5.915494561E-1,6.500090644E-1
9.564007916E-1,-1.006134078E-1,-2.746082544E-1,-6.944258809E-1,7.534985437E-1
9.663627916E-1,-7.543881238E-2,-3.040257990E-1,-7.835531235E-1,8.438472600E-1
9.763257917E-1,-5.831803381E-2,-3.286299706E-1,-8.580698967E-1,9.206968004E-1
9.862877916E-1,-4.239792377E-2,-3.324241638E-1,-9.184141755E-1,9.776441103E-1
9.962507916E-1,-2.228328586E-2,-3.221151829E-1,-9.594249129E-1,1.012299807E0
1.006213792E0,7.311622612E-3,-2.855494618E-1,-9.788212180E-1,1.019648435E0
1.016175792E0,4.974490032E-2,-2.416905463E-1,-9.835329056E-1,1.014014720E0
1.026138792E0,9.434432536E-2,-1.960655451E-1,-9.759668708E-1,9.999269386E-1
1.036100792E0,1.279850453E-1,-1.418768913E-1,-9.632526040E-1,9.820207754E-1
1.046063792E0,1.526038498E-1,-9.082276374E-2,-9.462520480E-1,9.627718565E-1
1.056025792E0,1.586234272E-1,-4.577706009E-2,-9.227640033E-1,9.374168425E-1
1.065988792E0,1.546190977E-1,1.971288119E-3,-9.032861590E-1,9.164261217E-1
1.075950792E0,1.347526908E-1,4.378356040E-2,-8.859940767E-1,8.972517996E-1
1.085913792E0,1.134908199E-1,9.193404764E-2,-8.765329719E-1,8.886180766E-1
1.095875792E0,9.385621548E-2,1.395334154E-1,-8.767231703E-1,8.927049235E-1
1.105838792E0,7.463351637E-2,1.890836656E-1,-8.935684562E-1,9.163991381E-1
1.115800792E0,6.045050919E-2,2.450662255E-1,-9.221456051E-1,9.560670667E-1
1.125763792E0,5.321736634E-2,3.002285659E-1,-9.641069174E-1,1.011173293E0
1.135725792E0,4.692653194E-2,3.549531996E-1,-1.010852695E0,1.072388476E0
1.145688792E0,5.073858052E-2,4.000916481E-1,-1.059133053E0,1.133318382E0
1.155650792E0,4.700711742E-2,4.346647263E-1,-1.105767369E0,1.189060372E0
1.165613792E0,4.663560539E-2,4.649299383E-1,-1.145230412E0,1.236886181E0
1.175575792E0,5.374101922E-2,4.738959670E-1,-1.189412355E0,1.281470732E0
1.185538792E0,7.007711381E-2,4.749415219E-1,-1.221176505E0,1.312155596E0
1.195500792E0,7.930998504E-2,4.672836959E-1,-1.249412060E0,1.336291368E0
1.205463792E0,8.671144396E-2,4.602492154E-1,-1.273969054E0,1.357330235E0
1.215425792E0,8.534183353E-2,4.574230015E-1,-1.295937061E0,1.376942954E0
1.225388792E0,7.545804977E-2,4.609961808E-1,-1.315754414E0,1.396216700E0
1.235350792E0,5.218145624E-2,4.580799341E-1,-1.323655009E0,1.401649997E0
1.245313792E0,2.834350243E-2,4.545134306E-1,-1.335153222E0,1.410680665E0
1.255275792E0,-2.147798892E-3,4.486260414E-1,-1.355375886E0,1.427695251E0
1.265238792E0,-2.061069570E-2,4.477288425E-1,-1.395973086E0,1.466160556E0
1.275200792E0,-3.297792003E-2,4.353105426E-1,-1.449787498E0,1.514089363E0
1.285163792E0,-4.147526622E-2,4.281181395E-1,-1.509683847E0,1.569761338E0
1.295126792E0,-4.685673118E-2,4.179448187E-1,-1.571774125E0,1.627067093E0
1.305088792E0,-5.258066207E-2,3.950453699E-1,-1.633778334E0,1.681682852E0
1.315051792E0,-5.885047838E-2,3.673373759E-1,-1.693292379E0,1.733677943E0
1.325013792E0,-6.542981416E-2,3.256461322E-1,-1.748143911E0,1.779419456E0
1.334976792E0,-7.980000973E-2,2.831051946E-1,-1.802664518E0,1.826503753E0
1.344938792E0,-9.764638543E-2,2.366596609E-1,-1.853242636E0,1.870842291E0
1.354901792E0,-1.112174913E-1,1.913624257E-1,-1.902762413E0,1.915592261E0
1.364863792E0,-1.155445948E-1,1.619693786E-1,-1.967460752E0,1.977494992E0
1.374826792E0,-1.216084138E-1,1.504465640E-1,-2.051250458E0,2.060352207E0
1.384788792E0,-1.245647967E-1,1.479043067E-1,-2.144912720E0,2.153611536E0
1.394751792E0,-1.313867271E-1,1.428713500E-1,-2.251855850E0,2.260205624E0
1.404713792E0,-1.468085647E-1,1.372369081E-1,-2.352407455E0,2.360975976E0
1.414676792E0,-1.615826041E-1,1.160133108E-1,-2.446035624E0,2.454110490E0
1.424638792E0,-1.705515981E-1,8.012188226E-2,-2.535281420E0,2.542274423E0
1.434601792E0,-1.715989113E-1,3.321636468E-2,-2.616775513E0,2.622606260E0
1.444563792E0,-1.614069939E-1,-2.940280363E-2,-2.699231148E0,2.704212553E0
1.454526792E0,-1.518120617E-1,-1.053563282E-1,-2.788051844E0,2.794168918E0
1.464488792E0,-1.725780517E-1,-1.870144457E-1,-2.875246048E0,2.886485306E0
1.474451792E0,-2.315400690E-1,-2.467879355E-1,-2.963755369E0,2.983012065E0
1.484413792E0,-2.781773508E-1,-3.045817018E-1,-3.053880692E0,3.081613202E0
1.494376792E0,-3.103199303E-1,-3.692498207E-1,-3.136812925E0,3.173679130E0
1.504338792E0,-3.421537578E-1,-4.019057751E-1,-3.218170166E0,3.261167991E0
1.514301792E0,-3.768769205E-1,-4.364124238E-1,-3.293933868E0,3.344023377E0
1.524263792E0,-4.240103662E-1,-4.080452323E-1,-3.385308266E0,3.436073014E0
1.534226792E0,-4.612152874E-1,-3.744183481E-1,-3.485664129E0,3.535924640E0
1.544188792E0,-5.159517527E-1,-3.363428712E-1,-3.585427761E0,3.637942409E0
1.554151792E0,-6.015732884E-1,-2.495837361E-1,-3.683679342E0,3.740812206E0
1.564113792E0,-6.173540950E-1,-7.809158415E-2,-3.764180422E0,3.815269142E0
1.574076792E0,-1.607258171E-1,2.763989940E-2,-3.772549629E0,3.776073021E0
1.584039792E0,-2.260123380E-2,-1.932038069E-1,-3.796976089E0,3.801955543E0
1.594001792E0,-1.575167030E-1,2.923096418E-1,-3.885698795E0,3.899860455E0
1.603964792E0,-3.230151236E-1,1.594027132E-1,-3.987080574E0,4.003318561E0
1.613926792E0,-4.732998908E-1,1.594557315E-1,-4.100017548E0,4.130324782E0
1.623889792E0,-3.513249755E-1,3.960480392E-1,-4.160308838E0,4.193858953E0
1.633851792E0,-2.633153498E-1,2.440828532E-1,-4.213592529E0,4.228861953E0
1.643814792E0,-3.623194098E-1,5.429832339E-1,-4.294046402E0,4.343378944E0
1.653776792E0,-4.628520906E-1,5.828099251E-1,-4.381412983E0,4.444173623E0
1.663739792E0,-3.914104104E-1,6.281875372E-1,-4.449830055E0,4.510965441E0
1.673701792E0,-3.662506342E-1,7.660530806E-1,-4.518794537E0,4.597877871E0
1.683664792E0,-3.842179179E-1,9.395990372E-1,-4.585319996E0,4.696342111E0
1.693626792E0,-3.521140218E-1,1.105730772E0,-4.641270638E0,4.784142343E0
1.703589792E0,-2.744935155E-1,1.167214632E0,-4.689550400E0,4.840415234E0
1.713551792E0,-2.223054320E-1,1.264911890E0,-4.737554550E0,4.908548147E0
1.723514792E0,-2.126099169E-1,1.365522623E0,-4.796397686E0,4.991521389E0
1.733476792E0,-2.250700742E-1,1.460344076E0,-4.865865707E0,5.085264048E0
1.743439792E0,-2.251774073E-1,1.518708229E0,-4.941791058E0,5.174792596E0
1.753401792E0,-2.109624892E-1,1.532099843E0,-5.020557404E0,5.253363850E0
1.763364792E0,-2.072788179E-1,1.606291533E0,-5.088039875E0,5.339596124E0
1.773326792E0,-1.841123998E-1,1.663561821E0,-5.132935524E0,5.398922337E0
1.783289792E0,-1.357634962E-1,1.630949855E0,-5.167130470E0,5.420116830E0
1.793251792E0,6.068509221E-1,1.044574857E0,-5.218736172E0,5.356735191E0
1.803214792E0,5.603981614E-1,1.399791002E0,-5.244194031E0,5.456650253E0
1.813176792E0,5.638999939E-1,8.572035432E-1,-5.249072075E0,5.348414603E0
1.823139792E0,6.824950576E-1,1.043747783E0,-5.292988777E0,5.437916801E0
1.833101792E0,7.942273617E-1,8.974897861E-1,-5.347688675E0,5.480333857E0
1.843064792E0,8.562598228E-1,6.747440696E-1,-5.414532661E0,5.523189693E0
1.853027792E0,8.468002081E-1,8.298397660E-1,-5.480284214E0,5.607068726E0
1.862989792E0,8.297713995E-1,6.850881577E-1,-5.548710346E0,5.652083940E0
1.872952792E0,8.279460073E-1,5.866751671E-1,-5.610511303E0,5.701536584E0
1.882914792E0,8.018864393E-1,3.751280308E-1,-5.666666985E0,5.735403875E0
1.892877792E0,7.393814325E-1,2.369254529E-1,-5.703728676E0,5.756330375E0
1.902839792E0,6.457527280E-1,1.108703092E-1,-5.713441372E0,5.750886986E0
1.912802792E0,5.758186579E-1,-3.003114834E-2,-5.706908226E0,5.735962909E0
1.922764792E0,5.489444137E-1,-1.781516373E-1,-5.701609612E0,5.730744292E0
1.932727792E0,5.412940979E-1,-3.204229176E-1,-5.694508553E0,5.729144596E0
1.942689792E0,5.150907040E-1,-3.983837366E-1,-5.689936638E0,5.727076652E0
1.952652792E0,5.055283904E-1,-4.315814078E-1,-5.692048073E0,5.730727068E0
1.962614167E0,4.706859589E-1,-4.964711964E-1,-5.698713779E0,5.739631317E0
1.972577167E0,4.535385966E-1,-5.461905599E-1,-5.710987091E0,5.754945260E0
1.982539167E0,4.248023033E-1,-5.795407891E-1,-5.717452526E0,5.762428994E0
1.992502167E0,4.000589848E-1,-6.009591222E-1,-5.719501972E0,5.764885243E0
2.002464167E0,3.702118695E-1,-6.065421700E-1,-5.720471382E0,5.764437793E0
2.012427167E0,3.215346634E-1,-6.268008947E-1,-5.716697693E0,5.759938924E0
2.022389167E0,2.984349430E-1,-6.238706112E-1,-5.714583397E0,5.756278429E0
2.032352167E0,2.810994387E-1,-6.308506727E-1,-5.713312626E0,5.754904919E0
2.042314167E0,2.504768074E-1,-6.236111522E-1,-5.714556694E0,5.753936714E0
2.052277167E0,1.860034913E-1,-6.724364758E-1,-5.694354534E0,5.736936611E0
2.062240167E0,5.571207404E-2,-7.054452896E-1,-5.692578793E0,5.736393484E0
2.072202167E0,-9.154643118E-2,-7.674041986E-1,-5.707142830E0,5.759233389E0
2.082165167E0,-2.876483202E-1,-7.612168789E-1,-5.732697010E0,5.790164739E0
2.092127167E0,-4.790660739E-1,-7.458448410E-1,-5.769798279E0,5.837496125E0
2.102090167E0,-6.484513879E-1,-7.240716219E-1,-5.809070110E0,5.889827201E0
2.112052167E0,-7.907927632E-1,-6.726131439E-1,-5.836774349E0,5.928380592E0
2.122015167E0,-9.070690274E-1,-5.908144116E-1,-5.857175350E0,5.956369613E0
2.131977167E0,-9.945326447E-1,-4.865587354E-1,-5.874153137E0,5.977583932E0
2.141940167E0,-1.061403036E0,-3.498757184E-1,-5.892601967E0,5.997645151E0
2.151902167E0,-1.127288342E0,-2.317307740E-1,-5.906875610E0,6.017944635E0
2.161865167E0,-1.182616830E0,-9.616841376E-2,-5.932747364E0,6.050233236E0
2.171827167E0,-1.232173562E0,4.202458635E-2,-5.957865238E0,6.084092040E0
2.181790167E0,-1.276986599E0,1.884774119E-1,-5.987394333E0,6.124957911E0
2.191752167E0,-1.306694150E0,3.411752582E-1,-6.024648190E0,6.174158725E0
2.201715167E0,-1.319514036E0,4.914686084E-1,-6.063313961E0,6.224663435E0
2.211677167E0,-1.294449091E0,6.542181969E-1,-6.104084969E0,6.274030061E0
2.221640167E0,-1.291118264E0,7.752626538E-1,-6.141672611E0,6.323619297E0
2.231602167E0,-1.269687057E0,9.346349239E-1,-6.175814152E0,6.373878576E0
2.241565167E0,-1.219342113E0,1.036471486E0,-6.212818146E0,6.415619817E0
2.251527167E0,-1.156216979E0,1.164040208E0,-6.244593620E0,6.456529779E0
2.261490167E0,-1.106508493E0,1.234780788E0,-6.274284840E0,6.489660614E0
2.271452167E0,-1.078348398E0,1.310786486E0,-6.307070732E0,6.531472858E0
2.281415167E0,-1.035082102E0,1.364691257E0,-6.346547127E0,6.573616784E0
2.291378167E0,-1.014471650E0,1.367632389E0,-6.399395466E0,6.622071686E0
2.301340167E0,-6.054630280E-1,1.874454379E0,-6.411631107E0,6.707397271E0
2.311303167E0,-2.998648584E-1,1.489730120E0,-6.398086071E0,6.576071786E0
2.321265167E0,-9.948117286E-2,1.208867550E0,-6.415328979E0,6.528989445E0
2.331228167E0,-6.342616677E-2,1.349653125E0,-6.467247486E0,6.606880995E0
2.341190167E0,-1.448073052E-2,1.467019439E0,-6.541011333E0,6.703520343E0
2.351153167E0,-6.960328203E-3,1.249070644E0,-6.603867531E0,6.720959179E0
2.361115167E0,1.580623724E-2,1.268742085E0,-6.663504601E0,6.783232996E0
2.371078167E0,4.955966771E-2,1.246892333E0,-6.727307320E0,6.842065509E0
2.381040167E0,1.405052841E-1,1.140331030E0,-6.787982941E0,6.884534043E0
2.391003167E0,3.238542378E-1,1.140317917E0,-6.859580040E0,6.961253109E0
2.400965167E0,3.823713362E-1,1.119130135E0,-6.926188469E0,7.026432011E0
2.410928167E0,4.654181004E-1,1.008320093E0,-6.986464977E0,7.074179549E0
2.420890167E0,5.558567047E-1,1.013205409E0,-7.047161579E0,7.141291774E0
2.430853167E0,6.103772521E-1,8.552054167E-1,-7.094724178E0,7.172102053E0
2.440815167E0,6.341411471E-1,7.760647535E-1,-7.129090786E0,7.199190714E0
2.450778167E0,6.213467121E-1,6.595334411E-1,-7.167852879E0,7.224899375E0
2.460740167E0,5.958461165E-1,5.081825256E-1,-7.206703663E0,7.249128207E0
2.470703167E0,5.691767335E-1,3.587473333E-1,-7.250671387E0,7.281819646E0
2.480666167E0,5.197332501E-1,1.797064692E-1,-7.292988777E0,7.313692800E0
2.490628167E0,4.441177845E-1,4.093862325E-2,-7.332758904E0,7.346309939E0
2.500591167E0,3.180999458E-1,-8.544035256E-2,-7.363460541E0,7.370823479E0
2.510553167E0,2.314655334E-1,-2.139345258E-1,-7.389522552E0,7.396241466E0
2.520516167E0,1.447860301E-1,-2.945998013E-1,-7.421077251E0,7.428333569E0
2.530478167E0,7.155772299E-2,-2.942324877E-1,-7.463599205E0,7.469739377E0
2.540441167E0,3.374323621E-2,-3.262061477E-1,-7.504538536E0,7.511700719E0
2.550403167E0,-2.285749093E-2,-3.144503832E-1,-7.544951916E0,7.551536328E0
2.560366167E0,-9.251779318E-2,-2.843883634E-1,-7.575852394E0,7.581752817E0
2.570328167E0,-1.447719187E-1,-2.857813537E-1,-7.597474098E0,7.604225310E0
2.580291167E0,-2.012399882E-1,-2.264743894E-1,-7.629124165E0,7.635137438E0
2.590253167E0,-2.679015398E-1,-2.339561880E-1,-7.662910938E0,7.671160980E0
2.600216167E0,-3.871110082E-1,-2.192265093E-1,-7.701985836E0,7.714823460E0
2.610178167E0,-5.133179426E-1,-1.359682828E-1,-7.745783806E0,7.763964802E0
2.620141167E0,-6.049176455E-1,-1.212886870E-1,-7.792900562E0,7.817284406E0
2.630103167E0,-6.993476748E-1,-2.644669637E-2,-7.833722115E0,7.864921409E0
2.640066167E0,-7.961048484E-1,6.588429213E-2,-7.865628242E0,7.906088244E0
2.650028167E0,-8.659749627E-1,1.615595967E-1,-7.897980213E0,7.946955743E0
2.659991167E0,-9.207407236E-1,2.899740338E-1,-7.935524464E0,7.994022575E0
2.669953167E0,-9.691954255E-1,4.079833925E-1,-7.980422020E0,8.049405310E0
2.679916167E0,-9.863115549E-1,5.339195132E-1,-8.015949249E0,8.094030078E0
2.689879167E0,-9.723726511E-1,6.805744171E-1,-8.045206070E0,8.132283248E0
2.699841167E0,-9.412845373E-1,7.962211370E-1,-8.065121651E0,8.158809467E0
2.709804167E0,-9.011061788E-1,9.029485583E-1,-8.084051132E0,8.184081570E0
2.719766167E0,-8.578740358E-1,1.000276923E0,-8.113763809E0,8.220076942E0
2.729729167E0,-8.636479974E-1,1.058142185E0,-8.146824837E0,8.260527082E0
2.739691167E0,-8.785046935E-1,1.128692269E0,-8.184989929E0,8.309017805E0
2.749654167E0,-8.982768059E-1,1.139793396E0,-8.243764877E0,8.370525047E0
2.759616167E0,-9.436549544E-1,1.165205121E0,-8.315855026E0,8.449948666E0
2.769579167E0,-1.014696240E0,1.149021983E0,-8.399690628E0,8.538422725E0
2.779541167E0,-1.094722390E0,1.165181518E0,-8.481599808E0,8.630967523E0
2.789504167E0,-1.152862191E0,1.217788815E0,-8.564212799E0,8.726846034E0
2.799466167E0,-7.883718610E-1,1.719676733E0,-8.585563660E0,8.791514182E0
2.809429167E0,-3.874831498E-1,1.405283213E0,-8.580168724E0,8.703117800E0
2.819391167E0,-2.172828913E-1,1.087496996E0,-8.582859993E0,8.654209798E0
2.829354167E0,-1.622517854E-1,1.369861603E0,-8.597255707E0,8.707218393E0
2.839316167E0,-7.953906804E-2,1.583531260E0,-8.627867699E0,8.772342831E0
2.849279167E0,4.329581931E-2,1.365592837E0,-8.643943787E0,8.751256053E0
2.859242167E0,1.929561496E-1,1.354179859E0,-8.651278496E0,8.758747329E0
2.869204167E0,3.160560131E-1,1.287331820E0,-8.645207405E0,8.746240661E0
2.879167167E0,3.960760236E-1,1.188128471E0,-8.636077881E0,8.726417744E0
2.889129167E0,5.074339509E-1,1.145451069E0,-8.623664856E0,8.714192040E0
2.899092167E0,6.193623543E-1,9.743419886E-1,-8.618181229E0,8.695171058E0
2.909054167E0,7.168732285E-1,8.524999619E-1,-8.617608070E0,8.689294118E0
2.919017167E0,7.898920178E-1,7.585295439E-1,-8.614167213E0,8.683500058E0
2.928979167E0,8.306285739E-1,5.984476805E-1,-8.623323441E0,8.683881080E0
2.938942167E0,8.595150709E-1,5.056903362E-1,-8.648445129E0,8.705750515E0
2.948904167E0,8.550987244E-1,3.283877671E-1,-8.679995537E0,8.728193105E0
2.958867250E0,8.101131916E-1,2.093511373E-1,-8.719420433E0,8.759475097E0
2.968829250E0,7.337379456E-1,1.094292328E-1,-8.758230209E0,8.789592853E0
2.978792250E0,6.795415878E-1,8.369457908E-3,-8.807067871E0,8.833249193E0
2.988754250E0,6.229042411E-1,-9.230574965E-2,-8.850500107E0,8.872873389E0
2.998717250E0,5.308321118E-1,-1.894639879E-1,-8.900582314E0,8.918410444E0
3.008679250E0,4.389013648E-1,-2.795915902E-1,-8.943112373E0,8.958240050E0
3.018642250E0,3.117673695E-1,-3.414123356E-1,-8.991717339E0,9.003596058E0
3.028604250E0,1.758421212E-1,-3.972931206E-1,-9.049169540E0,9.059593349E0
3.038567250E0,2.721669152E-2,-4.624979794E-1,-9.119728088E0,9.131488681E0
3.048530250E0,-1.333654374E-1,-4.831863344E-1,-9.202178955E0,9.215820793E0
3.058492250E0,-2.901864648E-1,-4.738876224E-1,-9.292543411E0,9.309142856E0
3.068455250E0,-4.254069626E-1,-4.087259173E-1,-9.383118629E0,9.401645769E0
3.078417250E0,-5.260376930E-1,-3.442867398E-1,-9.461167336E0,9.482032291E0
3.088380250E0,-5.978110433E-1,-2.381372899E-1,-9.535115242E0,9.556804387E0
3.098342250E0,-6.422402859E-1,-9.174013883E-2,-9.591948509E0,9.613863169E0
3.108305250E0,-6.856604815E-1,1.102905348E-2,-9.637599945E0,9.661965878E0
3.118267250E0,-7.038016915E-1,1.782345623E-1,-9.676654816E0,9.703852472E0
3.128230250E0,-7.137829065E-1,2.898734510E-1,-9.713177681E0,9.743681713E0
3.138192250E0,-7.124752998E-1,4.309799671E-1,-9.745796204E0,9.781304025E0
3.148155250E0,-6.960160732E-1,5.307615995E-1,-9.779594421E0,9.818686944E0
3.158117250E0,-6.782980561E-1,6.367495656E-1,-9.814806938E0,9.858801829E0
3.168080250E0,-6.639956832E-1,7.439269423E-1,-9.850288391E0,9.900631240E0
3.178042250E0,-6.347216368E-1,8.099848032E-1,-9.887382507E0,9.940788690E0
3.188005250E0,-6.106884480E-1,8.401165605E-1,-9.935190201E0,9.989331336E0
3.197967250E0,-6.087472439E-1,8.903219104E-1,-1.000483036E1,1.006279667E1
3.207930250E0,-6.132618189E-1,9.226250052E-1,-1.008478260E1,1.014545056E1
3.217892250E0,-6.132511497E-1,9.142889977E-1,-1.017364311E1,1.023303550E1
3.227855250E0,-6.119682193E-1,8.873507977E-1,-1.025795364E1,1.031443210E1
3.237818250E0,-6.127629280E-1,8.562126160E-1,-1.031264973E1,1.036625886E1
3.247780250E0,-5.965527892E-1,8.864475489E-1,-1.034630394E1,1.040133019E1
3.257743250E0,-5.443146229E-1,9.043120146E-1,-1.035784626E1,1.041148586E1
3.267705250E0,-4.531704187E-1,9.168099761E-1,-1.036084080E1,1.041119234E1
3.277668250E0,-3.408574760E-1,9.606203437E-1,-1.035950184E1,1.040952706E1
3.287630250E0,-2.272825390E-1,9.974271059E-1,-1.035905838E1,1.040944805E1
3.297593250E0,-1.211600974E-1,9.887346029E-1,-1.035771656E1,1.040550663E1
3.307555250E0,-6.436771248E-3,1.037903786E0,-1.035415459E1,1.040604646E1
3.317518250E0,9.784383327E-2,1.026141167E0,-1.035572243E1,1.040689801E1
3.327480250E0,1.911197007E-1,1.015637755E0,-1.035723495E1,1.040866767E1
3.337443250E0,2.930412591E-1,9.997639656E-1,-1.035549068E1,1.040776578E1
3.347405250E0,3.827456236E-1,9.524681568E-1,-1.035919094E1,1.040992444E1
3.357368250E0,5.204342008E-1,8.777103424E-1,-1.035757256E1,1.040771524E1
3.367330250E0,6.452589035E-1,7.671095729E-1,-1.036353397E1,1.041189957E1
3.377293250E0,7.296680212E-1,6.563093066E-1,-1.036596298E1,1.041231703E1
3.387255250E0,7.877163887E-1,5.913806558E-1,-1.036672974E1,1.041341988E1
3.397218250E0,8.954265714E-1,4.444138706E-1,-1.036814213E1,1.041622118E1
3.407181250E0,9.548183680E-1,3.224461675E-1,-1.036904240E1,1.041790237E1
3.417143250E0,1.000911474E0,2.536492646E-1,-1.036617565E1,1.041747375E1
3.427106250E0,1.004060030E0,4.986252636E-2,-1.036778831E1,1.041641288E1
3.437068250E0,1.010357618E0,2.239015698E-2,-1.036802959E1,1.041716667E1
3.447031250E0,1.015166283E0,-1.543186158E-1,-1.036378193E1,1.041452604E1
3.456993250E0,9.884915948E-1,-2.634475231E-1,-1.036416340E1,1.041452847E1
3.466956250E0,9.386231303E-1,-2.921361625E-1,-1.036024857E1,1.040678179E1
3.476918250E0,8.850325942E-1,-4.693543315E-1,-1.035756016E1,1.040589394E1
3.486881250E0,8.473285437E-1,-4.932715893E-1,-1.035625458E1,1.040256177E1
3.496843250E0,7.800608277E-1,-6.036835909E-1,-1.035335541E1,1.040023543E1
3.506806250E0,6.721460819E-1,-6.784605980E-1,-1.034975338E1,1.039372331E1
3.516768250E0,6.027752757E-1,-6.845613718E-1,-1.034388161E1,1.038401892E1
3.526731250E0,5.149241090E-1,-8.052424192E-1,-1.034145737E1,1.038553334E1
3.536693250E0,4.023751915E-1,-8.329829574E-1,-1.033764935E1,1.037895758E1
3.546656250E0,2.833009064E-1,-8.440301418E-1,-1.033324623E1,1.037152949E1
3.556619250E0,1.574178040E-1,-8.991181254E-1,-1.033333015E1,1.037356765E1
3.566581250E0,4.875294119E-2,-8.622341156E-1,-1.032994747E1,1.036598472E1
3.576544250E0,-6.170379743E-2,-8.897003531E-1,-1.032333946E1,1.036179095E1
3.586506250E0,-1.749259382E-1,-8.687515855E-1,-1.032131863E1,1.035929276E1
3.596469250E0,-2.780869305E-1,-8.228959441E-1,-1.031840897E1,1.035490481E1
3.606431250E0,-3.842259943E-1,-8.152861595E-1,-1.031196976E1,1.035128211E1
3.616394250E0,-4.810454845E-1,-7.569155097E-1,-1.031317139E1,1.035209302E1
3.626356250E0,-5.798283219E-1,-7.229399085E-1,-1.030939388E1,1.035096349E1
3.636319250E0,-6.780145168E-1,-6.755646467E-1,-1.029945469E1,1.034383189E1
3.646281250E0,-7.583154440E-1,-6.017067432E-1,-1.029871368E1,1.034410928E1
3.656244250E0,-8.228094578E-1,-5.594668984E-1,-1.029512024E1,1.034309042E1
3.666206250E0,-8.800538182E-1,-4.737069011E-1,-1.029469967E1,1.034310080E1
3.676169250E0,-9.455795884E-1,-3.863216639E-1,-1.028772545E1,1.033831031E1
3.686131250E0,-9.855601788E-1,-3.300277889E-1,-1.028699112E1,1.033936330E1
3.696094250E0,-1.011587501E0,-2.294231206E-1,-1.028326321E1,1.033544612E1
3.706056250E0,-1.042969823E0,-1.809673905E-1,-1.028407860E1,1.033841418E1
3.716019250E0,-1.043888092E0,-6.726826727E-2,-1.028171635E1,1.033479165E1
3.725982250E0,-1.037907481E0,-1.002674177E-2,-1.027964973E1,1.033191904E1
3.735944250E0,-1.020596981E0,3.729709610E-2,-1.027806759E1,1.032868252E1
3.745907250E0,-9.989499450E-1,1.685234159E-1,-1.027829933E1,1.032810429E1
3.755869250E0,-9.619836211E-1,1.413290650E-1,-1.027769566E1,1.032358535E1
3.765832250E0,-9.252101183E-1,2.674937248E-1,-1.027653503E1,1.032156669E1
3.775794250E0,-8.801281452E-1,3.071662784E-1,-1.027801895E1,1.032020592E1
3.785757250E0,-8.148087263E-1,3.312142789E-1,-1.027590942E1,1.031348295E1
3.795719250E0,-7.509799600E-1,4.376815856E-1,-1.028029156E1,1.031697294E1
3.805682250E0,-6.916880608E-1,4.309937954E-1,-1.027795410E1,1.031021477E1
3.815644250E0,-6.184402108E-1,5.013912916E-1,-1.027816486E1,1.030895409E1
3.825607250E0,-5.229486227E-1,5.316436887E-1,-1.028133202E1,1.030834169E1
3.835569250E0,-4.548944533E-1,5.578942299E-1,-1.028042030E1,1.030559152E1
3.845532250E0,-3.691449463E-1,6.388810873E-1,-1.027847385E1,1.030492415E1
3.855494250E0,-2.770485580E-1,6.365699768E-1,-1.028026772E1,1.030368291E1
3.865457250E0,-1.658390760E-1,6.731048822E-1,-1.028255272E1,1.030589459E1
3.875420250E0,-6.385891140E-2,6.902596354E-1,-1.028016853E1,1.030351403E1
3.885382250E0,3.719073534E-2,6.940149069E-1,-1.028412724E1,1.030758521E1
3.895345250E0,1.411075443E-1,7.056971192E-1,-1.028633213E1,1.031147654E1
3.905307250E0,2.422349453E-1,6.797108650E-1,-1.028290558E1,1.030819246E1
3.915270250E0,3.338884413E-1,6.678318381E-1,-1.028563690E1,1.031270126E1
3.925232250E0,4.236698151E-1,6.439037323E-1,-1.028607941E1,1.031491821E1
3.935195250E0,5.082483292E-1,5.975380540E-1,-1.029009342E1,1.031995110E1
3.945157250E0,5.958982706E-1,5.617135167E-1,-1.028999710E1,1.032253153E1
3.955120250E0,6.466240287E-1,4.659561217E-1,-1.029173279E1,1.032254821E1
3.965085792E0,6.999307871E-1,4.595421553E-1,-1.029100895E1,1.032501561E1
3.975048792E0,7.443794608E-1,3.281804025E-1,-1.029201412E1,1.032411535E1
3.985010792E0,7.788709402E-1,2.984637320E-1,-1.028930187E1,1.032305447E1
3.994973792E0,7.931897044E-1,2.023909986E-1,-1.028864384E1,1.032115808E1
4.004935792E0,8.038368225E-1,1.240855828E-1,-1.029123783E1,1.032332926E1
4.014898792E0,8.168562651E-1,4.358967394E-2,-1.029174137E1,1.032419947E1
4.024861792E0,8.043811321E-1,-5.904252455E-2,-1.029239082E1,1.032394420E1
4.034823792E0,7.550910711E-1,-1.588793695E-1,-1.028856277E1,1.031745749E1
4.044786792E0,7.163447142E-1,-2.029412240E-1,-1.028640270E1,1.031331253E1
4.054748792E0,6.758838296E-1,-3.148054183E-1,-1.028516293E1,1.031215292E1
4.064711792E0,6.250736117E-1,-3.855403662E-1,-1.028416348E1,1.031035289E1
4.074673792E0,5.378052592E-1,-4.468303621E-1,-1.027909184E1,1.030284528E1
4.084636792E0,4.568090439E-1,-5.334118009E-1,-1.027713013E1,1.030109733E1
4.094598792E0,3.774886429E-1,-5.813199282E-1,-1.027322388E1,1.029657998E1
4.104561792E0,2.890204191E-1,-6.377363205E-1,-1.026983452E1,1.029367483E1
4.114523792E0,1.905513704E-1,-6.940653920E-1,-1.026877117E1,1.029396415E1
4.124486792E0,8.887805790E-2,-7.076344490E-1,-1.026565456E1,1.029039890E1
4.134448792E0,-1.188423950E-2,-7.546632290E-1,-1.026041985E1,1.028814236E1
4.144411792E0,-1.128643006E-1,-7.714304924E-1,-1.025265217E1,1.028225266E1
4.154373792E0,-2.194589227E-1,-7.842383981E-1,-1.024804115E1,1.028034725E1
4.164336792E0,-3.325421512E-1,-7.854899168E-1,-1.024705982E1,1.028250036E1
4.174299792E0,-4.355715811E-1,-7.737610936E-1,-1.023961163E1,1.027803848E1
4.184261792E0,-5.216471553E-1,-7.579615116E-1,-1.023478603E1,1.027606279E1
4.194224792E0,-5.828836560E-1,-6.940147281E-1,-1.022954655E1,1.026961695E1
4.204186792E0,-6.474188566E-1,-7.176854610E-1,-1.022593212E1,1.027150969E1
4.214149792E0,-7.179169655E-1,-6.407517791E-1,-1.022176456E1,1.026695858E1
4.224111792E0,-7.855878472E-1,-6.599585414E-1,-1.021908188E1,1.027045900E1
4.234074792E0,-8.531080484E-1,-6.114040613E-1,-1.021246243E1,1.026625526E1
4.244036792E0,-9.377362728E-1,-5.248908401E-1,-1.020845127E1,1.026485933E1
4.253999792E0,-1.006962895E0,-4.825249612E-1,-1.020304871E1,1.026396646E1
4.263961792E0,-1.018240929E0,-3.555951715E-1,-1.020058060E1,1.025744154E1
4.273924792E0,-1.057182193E0,-3.134349287E-1,-1.019753838E1,1.025698126E1
4.283886792E0,-1.092324853E0,-1.732753664E-1,-1.019045734E1,1.025029847E1
4.293849792E0,-1.079248548E0,-8.237715065E-2,-1.018914413E1,1.024647362E1
4.303811792E0,-1.062396407E0,5.582748447E-3,-1.018619347E1,1.024144788E1
4.313774792E0,-1.050688386E0,1.668494046E-1,-1.018340302E1,1.023882228E1
4.323737792E0,-9.971138239E-1,2.530300915E-1,-1.018409157E1,1.023591624E1
4.333699792E0,-9.395877123E-1,3.698701560E-1,-1.018651199E1,1.023643764E1
4.343662792E0,-8.656100035E-1,4.891839325E-1,-1.018517685E1,1.023359219E1
4.353624792E0,-7.743362784E-1,5.954922438E-1,-1.018207932E1,1.022882920E1
4.363587792E0,-6.717706323E-1,6.868866086E-1,-1.018546677E1,1.023068044E1
4.373549792E0,-5.664862990E-1,7.765011787E-1,-1.018937492E1,1.023460904E1
4.383512792E0,-4.580394030E-1,8.375435472E-1,-1.019251156E1,1.023711733E1
4.393474792E0,-3.421215713E-1,8.962468505E-1,-1.019474697E1,1.023978376E1
4.403437792E0,-2.130366862E-1,9.375817776E-1,-1.019653988E1,1.024177083E1
4.413399792E0,-7.799018174E-2,9.593746662E-1,-1.020003605E1,1.024535102E1
4.423362792E0,5.392798781E-2,9.808009863E-1,-1.020086479E1,1.024804963E1
4.433324792E0,1.701613963E-1,9.572706819E-1,-1.020429802E1,1.025051316E1
4.443287792E0,2.689598501E-1,9.448217750E-1,-1.021235657E1,1.025949581E1
4.453250792E0,3.698241711E-1,9.134777188E-1,-1.021212292E1,1.025956461E1
4.463212792E0,4.669815600E-1,8.572105169E-1,-1.021481419E1,1.026135033E1
4.473175792E0,5.799211264E-1,8.368543386E-1,-1.021705246E1,1.026765770E1
4.483137792E0,6.478645802E-1,7.467519641E-1,-1.022243404E1,1.027012779E1
4.493100792E0,7.263430953E-1,7.079728842E-1,-1.022074127E1,1.027094699E1
4.503062792E0,7.954518795E-1,5.813814998E-1,-1.022538090E1,1.027273881E1
4.513025792E0,8.387322426E-1,4.961529076E-1,-1.022762775E1,1.027394807E1
4.522987792E0,8.748915195E-1,4.022895694E-1,-1.022841930E1,1.027364753E1
4.532950792E0,9.306900501E-1,2.458791882E-1,-1.022731781E1,1.027252015E1
4.542912792E0,9.320686460E-1,1.608465761E-1,-1.022857094E1,1.027220945E1
4.552875792E0,9.444819093E-1,1.342728827E-2,-1.022577381E1,1.026930749E1
4.562837792E0,9.432059526E-1,-1.198287457E-1,-1.022292805E1,1.026704701E1
4.572800792E0,9.162142873E-1,-2.735567987E-1,-1.022223949E1,1.026686234E1
4.582762792E0,8.502575159E-1,-4.163108170E-1,-1.022061634E1,1.026436802E1
4.592725792E0,7.547829151E-1,-5.588106513E-1,-1.021810627E1,1.026117256E1
4.602688792E0,6.759184003E-1,-6.672648191E-1,-1.021348667E1,1.025755419E1
4.612650792E0,5.720548630E-1,-7.836889029E-1,-1.020992088E1,1.025592022E1
4.622613792E0,4.668549299E-1,-8.626012802E-1,-1.020547295E1,1.025249787E1
4.632575792E0,3.525531292E-1,-9.454948306E-1,-1.020215321E1,1.025193563E1
4.642538792E0,2.399710268E-1,-1.025133252E0,-1.019824028E1,1.025244308E1
4.652500792E0,1.106969118E-1,-1.084842920E0,-1.018939304E1,1.024757867E1
4.662463792E0,-5.668793246E-2,-1.124435902E0,-1.018183327E1,1.024389078E1
4.672425792E0,-1.963020265E-1,-1.120524526E0,-1.017447758E1,1.023787594E1
4.682388792E0,-3.117103577E-1,-1.144930363E0,-1.017031002E1,1.023929855E1
4.692350792E0,-4.370357990E-1,-1.124729514E0,-1.016581535E1,1.023717825E1
4.702313792E0,-5.718961954E-1,-1.102508545E0,-1.015630341E1,1.023196409E1
4.712275792E0,-7.203559875E-1,-1.032612085E0,-1.015226555E1,1.023003892E1
4.722238792E0,-8.375680447E-1,-9.697360396E-1,-1.014574242E1,1.022633842E1
4.732201792E0,-9.207116961E-1,-8.975105882E-1,-1.013848209E1,1.021968955E1
4.742163792E0,-1.012557507E0,-7.977806926E-1,-1.013410378E1,1.021576165E1
4.752126792E0,-1.100884438E0,-7.013700008E-1,-1.012753868E1,1.021131266E1
4.762088792E0,-1.173277736E0,-5.823563337E-1,-1.012235928E1,1.020675643E1
4.772051792E0,-1.239474773E0,-4.419438541E-1,-1.011728859E1,1.020250658E1
4.782013792E0,-1.266895533E0,-3.338141441E-1,-1.011314678E1,1.019765630E1
4.791976792E0,-1.288673043E0,-1.350792050E-1,-1.010887051E1,1.019157434E1
4.801938792E0,-1.301023364E0,-3.613742441E-2,-1.010654163E1,1.019000253E1
4.811901792E0,-1.257834315E0,1.408328265E-1,-1.010629654E1,1.018524476E1
4.821863792E0,-1.220683336E0,2.443122417E-1,-1.010767746E1,1.018405125E1
4.831826792E0,-1.184669733E0,3.706033528E-1,-1.010626411E1,1.018220819E1
4.841788792E0,-1.129292727E0,5.195549726E-1,-1.010652256E1,1.018268323E1
4.851751792E0,-1.068426490E0,6.150631309E-1,-1.010564423E1,1.018056398E1
4.861714792E0,-9.720782638E-1,7.596830130E-1,-1.010740662E1,1.018242225E1
4.871676792E0,-8.688738346E-1,8.943007588E-1,-1.010671806E1,1.018334256E1
4.881639792E0,-7.427034974E-1,9.731349349E-1,-1.010763359E1,1.018149581E1
4.891601792E0,-6.072447300E-1,1.095354319E0,-1.011402321E1,1.019127140E1
4.901564792E0,-4.461549520E-1,1.104499221E0,-1.012020397E1,1.019006875E1
4.911526792E0,-2.855658233E-1,1.134506345E0,-1.012678719E1,1.019413906E1
4.921489792E0,-1.775106639E-1,1.176974535E0,-1.013390350E1,1.020356699E1
4.931451792E0,-2.836166322E-2,1.162516236E0,-1.013510799E1,1.020160097E1
4.941414792E0,9.961432964E-2,1.167357683E0,-1.013792515E1,1.020539922E1
4.951376792E0,2.433326244E-1,1.159922719E0,-1.014566135E1,1.021465006E1
4.961336500E0,4.017066956E-1,1.096228957E0,-1.014755535E1,1.021449782E1
4.971298500E0,5.429221988E-1,1.058653116E0,-1.015486431E1,1.022432297E1
4.981261500E0,6.454843283E-1,9.261501431E-1,-1.015820885E1,1.022074416E1
4.991224500E0,7.454658151E-1,8.631621003E-1,-1.015895367E1,1.022277397E1
5.001186500E0,8.617727160E-1,7.446902990E-1,-1.016394329E1,1.022755880E1
5.011149500E0,9.473839998E-1,5.972601175E-1,-1.016806412E1,1.022955444E1
5.021111500E0,1.028190732E0,4.924091399E-1,-1.016810799E1,1.023181621E1
5.031074500E0,1.057974696E0,2.851531506E-1,-1.016901588E1,1.022787890E1
5.041036500E0,1.085547447E0,1.452208310E-1,-1.017107487E1,1.022987128E1
5.050999500E0,1.084790111E0,-1.910312474E-2,-1.016882515E1,1.022654093E1
5.060961500E0,1.082973242E0,-1.948482692E-1,-1.017097092E1,1.023031995E1
5.070924500E0,1.050638556E0,-3.165608644E-1,-1.016597652E1,1.022502474E1
5.080886500E0,1.011035919E0,-5.142379403E-1,-1.016480637E1,1.022789923E1
5.090849500E0,9.446219206E-1,-6.595224142E-1,-1.015894413E1,1.022406114E1
5.100811500E0,8.270907402E-1,-7.934895158E-1,-1.015478897E1,1.021926826E1
5.110774500E0,7.370516658E-1,-9.309624434E-1,-1.014962101E1,1.021884254E1
5.120737500E0,6.115086675E-1,-1.036731124E0,-1.014606476E1,1.021721020E1
5.130699500E0,4.872152209E-1,-1.104704618E0,-1.014326572E1,1.021487105E1
5.140662500E0,3.664977849E-1,-1.204126239E0,-1.013458347E1,1.021244451E1
5.150624500E0,2.079132050E-1,-1.233854055E0,-1.012642860E1,1.020343962E1
5.160587500E0,5.352558196E-2,-1.278627396E0,-1.012140369E1,1.020198832E1
5.170549500E0,-8.713380247E-2,-1.283781886E0,-1.011732292E1,1.019881911E1
5.180512500E0,-2.424297482E-1,-1.258953571E0,-1.010853195E1,1.018951199E1
5.190474500E0,-3.673210740E-1,-1.246948361E0,-1.010346413E1,1.018674592E1
5.200437500E0,-4.919335842E-1,-1.189485312E0,-1.009893417E1,1.018063581E1
5.210399500E0,-6.211517453E-1,-1.160929322E0,-1.009666252E1,1.018215009E1
5.220362500E0,-7.709733844E-1,-1.056844115E0,-1.008790684E1,1.017237356E1
5.230324500E0,-8.784359097E-1,-9.750395417E-1,-1.007836723E1,1.016345600E1
5.240287500E0,-9.636099339E-1,-8.895846009E-1,-1.007921314E1,1.016417446E1
5.250250500E0,-1.075554609E0,-7.567317486E-1,-1.006885242E1,1.015437097E1
5.260212500E0,-1.174010158E0,-6.383817196E-1,-1.006233978E1,1.015069027E1
5.270175500E0,-1.231007934E0,-5.091395974E-1,-1.005973625E1,1.014755621E1
5.280137500E0,-1.271110773E0,-3.621063232E-1,-1.005807304E1,1.014453927E1
5.290100500E0,-1.304564953E0,-2.610223293E-1,-1.005392647E1,1.014157087E1
5.300062500E0,-1.333683610E0,-6.168574467E-2,-1.005101013E1,1.013929592E1
5.310025500E0,-1.339519978E0,3.474305570E-2,-1.004720497E1,1.013616538E1
5.319987500E0,-1.319388270E0,1.613157690E-1,-1.004670525E1,1.013425352E1
5.329950500E0,-1.306615710E0,3.134653270E-1,-1.004582787E1,1.013529292E1
5.339912500E0,-1.275819898E0,4.510537088E-1,-1.004431534E1,1.013505977E1
5.349875500E0,-1.199676037E0,5.739409924E-1,-1.004501343E1,1.013266626E1
5.359837500E0,-1.128291368E0,6.908999085E-1,-1.004707813E1,1.013381286E1
5.369800500E0,-1.051628828E0,8.240885735E-1,-1.004502869E1,1.013349133E1
5.379763500E0,-9.581680894E-1,9.087099433E-1,-1.004881477E1,1.013521180E1
5.389725500E0,-8.416060805E-1,1.027795553E0,-1.005083084E1,1.013823777E1
5.399688500E0,-7.062352896E-1,1.093772054E0,-1.005297661E1,1.013693466E1
5.409650500E0,-5.558385849E-1,1.138399482E0,-1.005646896E1,1.013594978E1
5.419613500E0,-4.398394227E-1,1.205256820E0,-1.006138706E1,1.014286017E1
5.429575500E0,-2.869641185E-1,1.221522331E0,-1.006520939E1,1.014312108E1
5.439538500E0,-1.263137013E-1,1.211345911E0,-1.007067394E1,1.014405184E1
5.449500500E0,1.749885827E-2,1.195447326E0,-1.007967663E1,1.015033406E1
5.459463500E0,1.470240951E-1,1.174285054E0,-1.008247852E1,1.015169615E1
5.469425500E0,2.746334374E-1,1.112728000E0,-1.008755779E1,1.015245829E1
5.479388500E0,4.246458411E-1,1.082773447E0,-1.009264565E1,1.015943987E1
5.489350500E0,5.786149502E-1,9.669709802E-1,-1.009880829E1,1.016148400E1
5.499313500E0,6.988908052E-1,8.820521832E-1,-1.010086346E1,1.016336101E1
5.509276500E0,7.976579070E-1,7.619383335E-1,-1.010469532E1,1.016472703E1
5.519238500E0,8.864693046E-1,5.989081860E-1,-1.010993481E1,1.016638090E1
5.529201500E0,9.478261471E-1,4.803479910E-1,-1.011158180E1,1.016726095E1
5.539163500E0,1.001265645E0,3.236391842E-1,-1.011102581E1,1.016563417E1
5.549126500E0,1.035444021E0,1.807914823E-1,-1.011080647E1,1.016529573E1
5.559088500E0,1.043541908E0,6.557400525E-2,-1.011253452E1,1.016644649E1
5.569051500E0,1.060742736E0,-1.000831351E-1,-1.011236763E1,1.016834160E1
5.579013500E0,1.060304642E0,-2.357231528E-1,-1.010896587E1,1.016715311E1
5.588976500E0,1.017504215E0,-3.687701523E-1,-1.010554504E1,1.016333345E1
5.598938500E0,9.725499153E-1,-5.142248869E-1,-1.010324669E1,1.016296582E1
5.608901500E0,9.159875512E-1,-6.096321344E-1,-1.010433483E1,1.016406744E1
5.618864500E0,8.512577415E-1,-7.395085692E-1,-1.010119534E1,1.016393919E1
5.628826500E0,7.720103264E-1,-8.347301483E-1,-1.009540462E1,1.015923072E1
5.638789500E0,6.721350551E-1,-9.102661610E-1,-1.009223270E1,1.015546705E1
5.648751500E0,5.533482432E-1,-1.010593534E0,-1.008904839E1,1.015462411E1
5.658714500E0,4.584021568E-1,-1.038710117E0,-1.008584595E1,1.014954874E1
5.668676500E0,3.191750050E-1,-1.141807675E0,-1.007662487E1,1.014613060E1
5.678639500E0,1.870183796E-1,-1.115094066E0,-1.007395744E1,1.013721013E1
5.688601500E0,5.917492881E-2,-1.146307588E0,-1.006955910E1,1.013476902E1
5.698564500E0,-8.820272237E-2,-1.127786517E0,-1.006362152E1,1.012700154E1
5.708526500E0,-2.048331946E-1,-1.099082708E0,-1.005953979E1,1.012147619E1
5.718489500E0,-3.272208869E-1,-1.080359340E0,-1.005574989E1,1.011891080E1
5.728451500E0,-4.544406235E-1,-1.007849455E0,-1.005199814E1,1.011261308E1
5.738414500E0,-5.653097034E-1,-9.583128095E-1,-1.004930115E1,1.011070680E1
5.748377500E0,-6.721181870E-1,-8.925955892E-1,-1.004320812E1,1.010517190E1
5.758339500E0,-7.685100436E-1,-8.085983992E-1,-1.004122734E1,1.010300379E1
5.768302500E0,-8.715799451E-1,-7.136383057E-1,-1.003578091E1,1.009880338E1
5.778264500E0,-9.539409876E-1,-6.027216911E-1,-1.003421688E1,1.009746430E1
5.788227500E0,-1.020570040E0,-5.034957528E-1,-1.002925301E1,1.009361120E1
5.798189500E0,-1.079799056E0,-3.940238953E-1,-1.002712154E1,1.009278888E1
5.808152500E0,-1.136109710E0,-2.742322683E-1,-1.002332115E1,1.009122963E1
5.818114500E0,-1.155918002E0,-1.246870905E-1,-1.002133369E1,1.008854907E1
5.828077500E0,-1.175498247E0,-4.474645481E-2,-1.001609612E1,1.008493826E1
5.838039500E0,-1.186916113E0,1.128861234E-1,-1.001627254E1,1.008698314E1
5.848002500E0,-1.187401652E0,2.254193276E-1,-1.001352119E1,1.008619568E1
5.857965500E0,-1.150551319E0,3.501411378E-1,-1.001486015E1,1.008681273E1
5.867927500E0,-1.108049870E0,4.909842908E-1,-1.001309490E1,1.008617418E1
5.877890500E0,-1.041943073E0,5.654616356E-1,-1.001517200E1,1.008509110E1
5.887852500E0,-9.758663774E-1,6.627735496E-1,-1.001566982E1,1.008490089E1
5.897815500E0,-8.770473599E-1,7.882694006E-1,-1.001387596E1,1.008306960E1
5.907777500E0,-7.888669372E-1,7.632039785E-1,-1.002001572E1,1.007995567E1
5.917740500E0,-6.994124055E-1,8.856252432E-1,-1.002113438E1,1.008447539E1
5.927702500E0,-6.037340760E-1,8.764639497E-1,-1.002215195E1,1.007850254E1
5.937665500E0,-4.867399037E-1,9.262064695E-1,-1.002479649E1,1.007925189E1
5.947627500E0,-3.496345282E-1,9.577583075E-1,-1.002851295E1,1.008020919E1
5.957590500E0,-2.165730298E-1,9.056881666E-1,-1.003322697E1,1.007634945E1
5.967553667E0,-1.057525203E-1,9.082498550E-1,-1.004065323E1,1.008220307E1
5.977515667E0,7.996428758E-3,8.532778621E-1,-1.003923988E1,1.007543967E1
5.987478667E0,1.170462146E-1,7.929477096E-1,-1.004608917E1,1.007801437E1
5.997440667E0,2.227051854E-1,7.510107160E-1,-1.004963589E1,1.008011886E1
6.007403667E0,3.207806051E-1,6.668143272E-1,-1.005215168E1,1.007934993E1
6.017365667E0,4.059323668E-1,6.049903631E-1,-1.005350494E1,1.007986885E1
6.027328667E0,4.899750650E-1,5.264289379E-1,-1.006081486E1,1.008648594E1
6.037290667E0,5.727493763E-1,4.209668636E-1,-1.005860138E1,1.008368567E1
6.047253667E0,6.309602261E-1,3.239630759E-1,-1.006181240E1,1.008678004E1
6.057215667E0,6.757228971E-1,2.469491214E-1,-1.005833912E1,1.008403546E1
6.067178667E0,6.993078589E-1,1.263239086E-1,-1.005964947E1,1.008471797E1
6.077140667E0,7.167138457E-1,9.171027690E-2,-1.005910015E1,1.008501787E1
6.087103667E0,7.481391430E-1,-8.572895825E-2,-1.005968189E1,1.008782739E1
6.097066667E0,7.398337722E-1,-8.073980361E-2,-1.005954361E1,1.008703577E1
6.107028667E0,7.250953317E-1,-1.855431795E-1,-1.005449009E1,1.008230928E1
6.116991667E0,7.180455923E-1,-2.713224292E-1,-1.005164433E1,1.008091062E1
6.126953667E0,7.300947905E-1,-3.285910487E-1,-1.005350590E1,1.008533546E1
6.136916667E0,6.662606001E-1,-4.527223110E-1,-1.005039024E1,1.008261894E1
6.146878667E0,5.977646708E-1,-4.655464888E-1,-1.004624462E1,1.007477479E1
6.156841667E0,5.410208106E-1,-5.238303542E-1,-1.004742813E1,1.007560985E1
6.166803667E0,4.992091954E-1,-6.373603940E-1,-1.004599667E1,1.007856573E1
6.176766667E0,4.297125340E-1,-5.945971608E-1,-1.004176807E1,1.006853041E1
6.186728667E0,3.478544056E-1,-6.711339951E-1,-1.003721333E1,1.006563832E1
6.196691667E0,2.796199918E-1,-6.684435010E-1,-1.003716946E1,1.006328847E1
6.206654667E0,2.142194211E-1,-6.873831153E-1,-1.003877640E1,1.006456244E1
6.216616667E0,1.214289144E-1,-7.498052716E-1,-1.003113270E1,1.005984971E1
6.226579667E0,2.032519691E-2,-7.116421461E-1,-1.003008652E1,1.005532114E1
6.236541667E0,-8.343041688E-2,-7.230688930E-1,-1.002445698E1,1.005084708E1
6.246504667E0,-1.766463816E-1,-7.062281370E-1,-1.002212524E1,1.004853007E1
6.256466667E0,-2.703349888E-1,-6.719846129E-1,-1.002100372E1,1.004714686E1
6.266429667E0,-3.598068058E-1,-6.439356804E-1,-1.001777267E1,1.004489340E1
6.276391667E0,-4.413387477E-1,-5.810704231E-1,-1.001709461E1,1.004363516E1
6.286354667E0,-5.251449943E-1,-5.272631049E-1,-1.001265240E1,1.004026851E1
6.296316667E0,-5.817418694E-1,-4.633933902E-1,-1.001118088E1,1.003876983E1
6.306279667E0,-6.288174987E-1,-4.246095121E-1,-1.001277542E1,1.004148277E1
6.316242667E0,-6.928876638E-1,-3.346524835E-1,-1.000665379E1,1.003619478E1
6.326204667E0,-7.467396855E-1,-2.926144898E-1,-1.000550556E1,1.003759856E1
6.336167667E0,-7.716678381E-1,-2.076914012E-1,-1.000538731E1,1.003724973E1
6.346129667E0,-7.777816653E-1,-1.954427212E-1,-1.000353622E1,1.003563048E1
6.356092667E0,-8.349939585E-1,-1.179613099E-1,-1.000049019E1,1.003598195E1
6.366054667E0,-8.486679196E-1,-1.423838176E-2,-9.998871803E0,1.003483320E1
6.376017667E0,-8.555252552E-1,-1.307320409E-2,-9.997080803E0,1.003362940E1
6.385979667E0,-8.483120799E-1,9.058581293E-2,-9.995736122E0,1.003207754E1
6.395942667E0,-8.430249095E-1,1.143465340E-1,-9.994033813E0,1.003017836E1
6.405904667E0,-8.095846772E-1,1.734793633E-1,-9.992629051E0,1.002687179E1
6.415867667E0,-7.918252945E-1,2.206754684E-1,-9.993808746E0,1.002755694E1
6.425830667E0,-7.673202157E-1,2.365662903E-1,-9.993663788E0,1.002586953E1
6.435792667E0,-7.406049967E-1,2.955842614E-1,-9.992255211E0,1.002402265E1
6.445755667E0,-7.084435821E-1,3.377705812E-1,-9.991763115E0,1.002254017E1
6.455717667E0,-6.417844296E-1,3.732174337E-1,-9.991342545E0,1.001888738E1
6.465680667E0,-5.889760256E-1,4.224174917E-1,-9.990705490E0,1.001696189E1
6.475642667E0,-5.176053643E-1,4.111019075E-1,-9.991842270E0,1.001368224E1
6.485605667E0,-4.528346360E-1,4.544957280E-1,-9.994890213E0,1.001546085E1
6.495567667E0,-3.906305730E-1,4.343237877E-1,-9.995884895E0,1.001293884E1
6.505530667E0,-3.284356296E-1,4.429393709E-1,-9.997756004E0,1.001295113E1
6.515492667E0,-2.539750040E-1,4.622235000E-1,-9.994264603E0,1.000817060E1
6.525455667E0,-1.929153800E-1,4.544824958E-1,-9.994668007E0,1.000685561E1
6.535418667E0,-1.221385077E-1,4.729072154E-1,-9.996430397E0,1.000835550E1
6.545380667E0,-6.001442298E-2,4.747948647E-1,-9.994399071E0,1.000585052E1
6.555343667E0,1.908775419E-2,4.650905728E-1,-9.996506691E0,1.000733829E1
6.565305667E0,8.744070679E-2,4.559884071E-1,-9.997790337E0,1.000856548E1
6.575268667E0,1.538853049E-1,4.652639031E-1,-9.995830536E0,1.000783589E1
6.585230667E0,2.280916125E-1,4.380807281E-1,-9.996882439E0,1.000907583E1
6.595193667E0,3.013331294E-1,4.334190488E-1,-9.997490883E0,1.001141737E1
6.605155667E0,3.730294108E-1,4.072681367E-1,-9.996755600E0,1.001199984E1
6.615118667E0,4.352156818E-1,3.547996581E-1,-9.999749184E0,1.001550195E1
6.625080667E0,4.847092032E-1,3.305681050E-1,-9.999546051E0,1.001674296E1
6.635043667E0,5.230383277E-1,2.398677766E-1,-9.999826431E0,1.001636832E1
6.645006667E0,5.418612957E-1,1.975876987E-1,-1.000228405E1,1.001889918E1
6.654968667E0,5.609336495E-1,1.687388420E-1,-1.000130367E1,1.001844272E1
6.664931667E0,5.618612170E-1,6.982398778E-2,-1.000032330E1,1.001633812E1
6.674893667E0,5.731683373E-1,9.397819638E-2,-9.999526024E0,1.001638031E1
6.684856667E0,5.644193292E-1,8.912573569E-3,-9.995004654E0,1.001093236E1
6.694818667E0,5.641146898E-1,-3.915634379E-2,-9.996536255E0,1.001251695E1
6.704781667E0,5.626826882E-1,-4.668989405E-2,-9.997397423E0,1.001332847E1
6.714743667E0,5.294016004E-1,-1.542405933E-1,-9.995863914E0,1.001106146E1
6.724706667E0,5.072912574E-1,-1.601245850E-1,-9.998159409E0,1.001230123E1
6.734668667E0,4.852935076E-1,-2.393903732E-1,-9.995994568E0,1.001063060E1
6.744631667E0,4.437950850E-1,-3.032481670E-1,-9.996869087E0,1.001130886E1
6.754594667E0,3.899706602E-1,-3.048024476E-1,-9.992853165E0,1.000510350E1
6.764556667E0,3.535599411E-1,-3.857865036E-1,-9.992110252E0,1.000580347E1
6.774519667E0,3.015299439E-1,-4.023872316E-1,-9.990565300E0,1.000321102E1
6.784481667E0,2.472267598E-1,-4.426063001E-1,-9.987523079E0,1.000038193E1
6.794444667E0,1.812309772E-1,-4.943338633E-1,-9.986966133E0,1.000083512E1
6.804406667E0,1.268231273E-1,-5.190847516E-1,-9.985948563E0,1.000023509E1
6.814369667E0,6.994606555E-2,-5.949381590E-1,-9.981598854E0,9.999557968E0
6.824331667E0,-3.736409126E-4,-6.167377234E-1,-9.980951309E0,9.999987730E0
6.834294667E0,-8.418336511E-2,-6.598146558E-1,-9.972855568E0,9.995013277E0
6.844256667E0,-1.699219793E-1,-6.851298809E-1,-9.966409683E0,9.991376202E0
6.854219667E0,-2.620718479E-1,-6.836477518E-1,-9.963382721E0,9.990247802E0
6.864182667E0,-3.444500566E-1,-6.965616941E-1,-9.960694313E0,9.990959675E0
6.874144667E0,-4.235363305E-1,-6.738588214E-1,-9.955000877E0,9.986766804E0
6.884107667E0,-5.019688010E-1,-6.614945531E-1,-9.956653595E0,9.991221073E0
6.894069667E0,-5.756431222E-1,-6.369436979E-1,-9.952449799E0,9.989410357E0
6.904032667E0,-6.219072938E-1,-5.767677426E-1,-9.946681023E0,9.982779827E0
6.913994667E0,-6.814535856E-1,-5.858529210E-1,-9.941432953E0,9.981968333E0
6.923957667E0,-7.361783385E-1,-5.135267973E-1,-9.942646980E0,9.983080551E0
6.933919667E0,-8.008704782E-1,-4.891155958E-1,-9.934931755E0,9.979153099E0
6.943882667E0,-8.614001274E-1,-3.999910355E-1,-9.934100151E0,9.979396215E0
6.953844667E0,-8.945463896E-1,-3.178696632E-1,-9.927872658E0,9.973159473E0
6.963807375E0,-8.983262181E-1,-2.695055902E-1,-9.927717209E0,9.971920188E0
6.973770375E0,-9.198414683E-1,-1.443151534E-1,-9.924757004E0,9.968336711E0
6.983732375E0,-9.354824424E-1,-9.760224819E-2,-9.921599388E0,9.966081879E0
6.993695375E0,-9.316163659E-1,3.301062435E-2,-9.917729378E0,9.961443408E0
7.003657375E0,-9.170570970E-1,9.911454469E-2,-9.917421341E0,9.960224067E0
7.013620375E0,-8.717348576E-1,1.801990569E-1,-9.915818214E0,9.955694060E0
7.023582375E0,-8.449980617E-1,3.089913726E-1,-9.917173386E0,9.957902658E0
7.033545375E0,-7.778726816E-1,3.831111193E-1,-9.913673401E0,9.951521509E0
7.043507375E0,-6.860162020E-1,4.374936521E-1,-9.911585808E0,9.944925950E0
7.053470375E0,-6.014913321E-1,5.103629231E-1,-9.912918091E0,9.944254985E0
7.063432375E0,-5.310148001E-1,5.519196987E-1,-9.916444778E0,9.945977534E0
7.073395375E0,-4.519523680E-1,6.083350182E-1,-9.917438507E0,9.946352044E0
7.083358375E0,-3.623085022E-1,6.511879563E-1,-9.920029640E0,9.947979758E0
7.093320375E0,-2.665888965E-1,6.634120941E-1,-9.916502953E0,9.942244015E0
7.103283375E0,-1.809134185E-1,7.045488358E-1,-9.917408943E0,9.944049420E0
7.113245375E0,-9.192113578E-2,7.274838686E-1,-9.918888092E0,9.945955120E0
7.123208375E0,5.061600357E-3,7.351678610E-1,-9.920064926E0,9.947270256E0
7.133170375E0,1.097988337E-1,7.412227988E-1,-9.918926239E0,9.947188787E0
7.143133375E0,2.018858790E-1,7.257911563E-1,-9.923800468E0,9.952353814E0
7.153095375E0,2.916364074E-1,7.140193582E-1,-9.924583435E0,9.954508114E0
7.163058375E0,3.812049031E-1,6.886351705E-1,-9.927202225E0,9.958357274E0
7.173021375E0,4.685620964E-1,6.382918358E-1,-9.929873466E0,9.961393174E0
7.182983375E0,5.479847193E-1,5.759565234E-1,-9.931599617E0,9.963367108E0
7.192946375E0,5.876811147E-1,5.128995776E-1,-9.931963921E0,9.962546983E0
7.202908375E0,6.213815212E-1,4.610941112E-1,-9.932398796E0,9.962493093E0
7.212871375E0,6.732299924E-1,3.728963137E-1,-9.933498383E0,9.963266553E0
7.222833375E0,7.136269808E-1,3.077559173E-1,-9.935148239E0,9.965497865E0
7.232796375E0,7.144287229E-1,2.157505304E-1,-9.933810234E0,9.961804177E0
7.242758375E0,7.136364579E-1,1.507946998E-1,-9.934933662E0,9.961672696E0
7.252721375E0,7.213378549E-1,6.146959960E-2,-9.934208870E0,9.960552830E0
7.262683375E0,7.260679007E-1,-4.884891957E-2,-9.933024406E0,9.959645309E0
7.272646375E0,7.043598294E-1,-1.082613841E-1,-9.932463646E0,9.957995650E0
7.282609375E0,6.606043577E-1,-2.014560401E-1,-9.930421829E0,9.954409091E0
7.292571375E0,6.379388571E-1,-3.001324534E-1,-9.927680969E0,9.952682799E0
7.302534375E0,5.839747190E-1,-3.886660337E-1,-9.927638054E0,9.952390923E0
7.312496375E0,5.113533139E-1,-4.802828729E-1,-9.922835350E0,9.947603492E0
7.322459375E0,4.382559061E-1,-5.353828669E-1,-9.920324326E0,9.944422446E0
7.332421375E0,3.658827543E-1,-6.027516723E-1,-9.916069984E0,9.941107770E0
7.342384375E0,2.877557278E-1,-6.827242970E-1,-9.912993431E0,9.940641558E0
7.352346375E0,2.039166540E-1,-7.175094485E-1,-9.910966873E0,9.938997242E0
7.362309375E0,1.158528477E-1,-7.681266069E-1,-9.904960632E0,9.935375458E0
7.372271375E0,2.889645286E-2,-8.048167825E-1,-9.902155876E0,9.934850580E0
7.382234375E0,-5.641524494E-2,-8.270994425E-1,-9.896686554E0,9.931348394E0
7.392197375E0,-1.441973746E-1,-8.521851301E-1,-9.894291878E0,9.931969802E0
7.402159375E0,-2.392378747E-1,-8.499448895E-1,-9.889425278E0,9.928764948E0
7.412122375E0,-3.291949332E-1,-8.562481999E-1,-9.881533623E0,9.924023228E0
7.422084375E0,-4.205458760E-1,-8.499791026E-1,-9.879000664E0,9.924413203E0
7.432047375E0,-5.102019906E-1,-8.329682350E-1,-9.874096870E0,9.922294652E0
7.442009375E0,-6.052196026E-1,-7.838014960E-1,-9.869953156E0,9.919506583E0
7.451972375E0,-6.919512153E-1,-7.323677540E-1,-9.864599228E0,9.915920378E0
7.461934375E0,-7.402103543E-1,-6.739339828E-1,-9.863772392E0,9.914439177E0
7.471897375E0,-8.067811131E-1,-6.037795544E-1,-9.860340118E0,9.911697774E0
7.481859375E0,-8.680894971E-1,-5.308307409E-1,-9.854854584E0,9.907245809E0
7.491822375E0,-9.116118550E-1,-4.425945878E-1,-9.852618217E0,9.904595493E0
7.501785375E0,-9.462414980E-1,-3.631229401E-1,-9.848371506E0,9.900386485E0
7.511747375E0,-9.773717523E-1,-2.701742351E-1,-9.848555565E0,9.900621010E0
7.521710375E0,-9.980453849E-1,-1.509855241E-1,-9.841618538E0,9.893247529E0
7.531672375E0,-9.777473807E-1,-4.868496954E-2,-9.843813896E0,9.892372425E0
7.541635375E0,-9.618685246E-1,3.172624856E-2,-9.842079163E0,9.889020167E0
7.551597375E0,-9.546356201E-1,1.573805660E-1,-9.843691826E0,9.891125647E0
7.561560375E0,-9.319619536E-1,2.247031480E-1,-9.838055611E0,9.884653903E0
7.571522375E0,-8.907526135E-1,3.435998559E-1,-9.841152191E0,9.887354425E0
7.581485375E0,-8.227900863E-1,4.559346437E-1,-9.840573311E0,9.885430846E0
7.591447375E0,-7.497110963E-1,5.058218241E-1,-9.839661598E0,9.881136717E0
7.601410375E0,-6.732789278E-1,6.323723197E-1,-9.839498520E0,9.882759250E0
7.611373375E0,-5.895980000E-1,6.660926342E-1,-9.842708588E0,9.882824371E0
7.621335375E0,-4.999231994E-1,7.319193482E-1,-9.843535423E0,9.883360702E0
7.631298375E0,-4.008048177E-1,8.032240272E-1,-9.845791817E0,9.886628841E0
7.641260375E0,-3.009732962E-1,8.087024093E-1,-9.845878601E0,9.883618261E0
7.651223375E0,-1.798251271E-1,8.744962215E-1,-9.850399017E0,9.890775577E0
7.661185375E0,-7.988760620E-2,8.502023220E-1,-9.850629807E0,9.887574708E0
7.671148375E0,2.251392417E-2,8.471296430E-1,-9.857460976E0,9.893819909E0
7.681110375E0,1.180585548E-1,8.435130715E-1,-9.859520912E0,9.896241950E0
7.691073375E0,2.052875608E-1,7.926480174E-1,-9.859789848E0,9.893729818E0
7.701036375E0,2.924288511E-1,7.912501097E-1,-9.859047890E0,9.895070321E0
7.710998375E0,3.754182160E-1,7.303760648E-1,-9.863964081E0,9.898089483E0
7.720961375E0,4.660365283E-1,6.642119884E-1,-9.864665985E0,9.897979724E0
7.730923375E0,5.150631070E-1,6.226873994E-1,-9.868456841E0,9.901488273E0
7.740886375E0,5.758126974E-1,5.323598981E-1,-9.871467590E0,9.902567329E0
7.750848375E0,6.332629323E-1,4.650236666E-1,-9.870305061E0,9.901524678E0
7.760811375E0,6.935973763E-1,3.458456099E-1,-9.872201920E0,9.902578313E0
7.770773375E0,7.207478881E-1,2.450196147E-1,-9.875616074E0,9.904913173E0
7.780736375E0,7.255450487E-1,1.547232866E-1,-9.871035576E0,9.898873585E0
7.790698375E0,7.406545877E-1,2.685931325E-2,-9.873588562E0,9.901365650E0
7.800661375E0,7.310535908E-1,-7.413227856E-2,-9.872250557E0,9.899558879E0
7.810624375E0,7.110239267E-1,-1.823423505E-1,-9.871207237E0,9.898461298E0
7.820586375E0,6.812412739E-1,-2.809354961E-1,-9.872966766E0,9.900428637E0
7.830549375E0,6.456828117E-1,-3.835823536E-1,-9.864648819E0,9.893196553E0
7.840511375E0,5.681193471E-1,-4.979507327E-1,-9.866267204E0,9.895147451E0
7.850474375E0,4.946105182E-1,-5.448738933E-1,-9.857042313E0,9.884473192E0
7.860436375E0,4.283175170E-1,-6.404198408E-1,-9.856875420E0,9.886940199E0
7.870399375E0,3.525587618E-1,-6.740775108E-1,-9.852031708E0,9.881356533E0
7.880361375E0,2.732205391E-1,-7.484049797E-1,-9.847764015E0,9.879940059E0
7.890324375E0,1.779740900E-1,-7.946799994E-1,-9.843150139E0,9.876780636E0
7.900286375E0,6.487336010E-2,-8.143716455E-1,-9.841378212E0,9.875228344E0
7.910249375E0,-2.809146605E-2,-8.387616873E-1,-9.836661339E0,9.872396700E0
7.920212375E0,-1.245506331E-1,-8.288539052E-1,-9.829909325E0,9.865577985E0
7.930174375E0,-2.152789235E-1,-8.232273459E-1,-9.827202797E0,9.863972987E0
7.940137375E0,-3.048487306E-1,-8.124647141E-1,-9.822237015E0,9.860495507E0
7.950099375E0,-3.953306377E-1,-7.760531306E-1,-9.817643166E0,9.856199171E0
7.960062375E0,-4.898707271E-1,-7.384905815E-1,-9.812785149E0,9.852720134E0
7.970024292E0,-5.763774514E-1,-6.839839816E-1,-9.807917595E0,9.848618817E0
7.979987292E0,-6.342535615E-1,-6.219301820E-1,-9.808083534E0,9.848227117E0
7.989949292E0,-7.066603899E-1,-5.534542203E-1,-9.802094460E0,9.843106028E0
7.999912292E0,-7.616687417E-1,-4.676018953E-1,-9.798877716E0,9.839552596E0
8.009875292E0,-8.101130128E-1,-3.890639544E-1,-9.795172691E0,9.836313431E0
8.019837292E0,-8.609926701E-1,-2.877967060E-1,-9.794801712E0,9.836781786E0
8.029800292E0,-8.740134239E-1,-1.941826195E-1,-9.791325569E0,9.832174874E0
8.039762292E0,-8.914791942E-1,-8.454880118E-2,-9.789302826E0,9.830174641E0
8.049725292E0,-8.833967447E-1,1.393119711E-2,-9.791378021E0,9.831157991E0
8.059687292E0,-8.719708920E-1,1.062866896E-1,-9.789355278E0,9.828687952E0
8.069650292E0,-8.500270247E-1,2.021676004E-1,-9.789486885E0,9.828401251E0
8.079612292E0,-8.185322285E-1,2.905182242E-1,-9.789784431E0,9.828238655E0
8.089575292E0,-7.516068220E-1,3.786506951E-1,-9.791933060E0,9.828033486E0
8.099537292E0,-7.048957348E-1,4.479637146E-1,-9.794085503E0,9.829631749E0
8.109500292E0,-6.451470852E-1,5.285132527E-1,-9.795789719E0,9.831227656E0
8.119463292E0,-5.760508180E-1,5.668976903E-1,-9.797665596E0,9.830943936E0
8.129425292E0,-4.877328277E-1,6.267522573E-1,-9.797328949E0,9.829463680E0
8.139388292E0,-4.203495085E-1,6.572193503E-1,-9.799236298E0,9.830242266E0
8.149350292E0,-3.261527419E-1,6.793206930E-1,-9.802711487E0,9.831632861E0
8.159313292E0,-2.500659525E-1,6.946957111E-1,-9.804298401E0,9.832059919E0
8.169275292E0,-1.723614037E-1,7.010218501E-1,-9.809632301E0,9.836159107E0
8.179238292E0,-8.640042692E-2,7.044914365E-1,-9.810179710E0,9.835822242E0
8.189200292E0,-8.090780117E-3,6.882478595E-1,-9.809532166E0,9.833649978E0
8.199163292E0,7.432127744E-2,6.792706251E-1,-9.812908173E0,9.836671136E0
8.209126292E0,1.578430831E-1,6.471997499E-1,-9.814569473E0,9.837151819E0
8.219088292E0,2.506451905E-1,5.846636295E-1,-9.818612099E0,9.839197026E0
8.229051292E0,3.066887558E-1,5.507606268E-1,-9.822141647E0,9.842350421E0
8.239013292E0,3.477544188E-1,4.818819463E-1,-9.818721771E0,9.836688496E0
8.248976292E0,3.982106149E-1,4.185714126E-1,-9.820602417E0,9.837581286E0
8.258938292E0,4.502951205E-1,3.445731103E-1,-9.821656227E0,9.838009319E0
8.268901292E0,4.818277955E-1,2.653506100E-1,-9.821301460E0,9.836693110E0
8.278863292E0,5.035922527E-1,1.962128282E-1,-9.822402000E0,9.837260070E0
8.288826292E0,5.246321559E-1,1.038648635E-1,-9.822464943E0,9.837013996E0
8.298788292E0,5.393330455E-1,2.039953321E-2,-9.823533058E0,9.838348338E0
8.308751292E0,5.402696133E-1,-6.386118382E-2,-9.822111130E0,9.837166083E0
8.318714292E0,5.163988471E-1,-1.464074552E-1,-9.818152428E0,9.832813433E0
8.328676292E0,5.066394806E-1,-2.081227750E-1,-9.818312645E0,9.833578283E0
8.338639292E0,4.905987382E-1,-3.067409396E-1,-9.815834045E0,9.832872171E0
8.348601292E0,4.564340115E-1,-3.722005486E-1,-9.816158295E0,9.833810499E0
8.358564292E0,4.002104104E-1,-4.397590756E-1,-9.811398506E0,9.829399629E0
8.368526292E0,3.236097693E-1,-4.870223105E-1,-9.810245514E0,9.827656438E0
8.378489292E0,2.818732262E-1,-5.292403698E-1,-9.805896759E0,9.824212901E0
8.388451292E0,2.058568448E-1,-5.844388008E-1,-9.799754143E0,9.819324163E0
8.398414292E0,1.339552253E-1,-5.605978966E-1,-9.800858498E0,9.817792078E0
8.408377292E0,7.309257984E-2,-6.008881330E-1,-9.791640282E0,9.810332741E0
8.418339292E0,1.366361044E-2,-5.885824561E-1,-9.787464142E0,9.805155294E0
8.428302292E0,-4.880082235E-2,-5.912739038E-1,-9.786006927E0,9.803974599E0
8.438264292E0,-1.300669014E-1,-5.938299894E-1,-9.781102180E0,9.799975067E0
8.448227292E0,-2.144077420E-1,-5.519343615E-1,-9.777173996E0,9.795087216E0
8.458189292E0,-2.957081795E-1,-5.387759209E-1,-9.773362160E0,9.792667192E0
8.468152292E0,-3.567627966E-1,-5.016863346E-1,-9.771355629E0,9.790728252E0
8.478114292E0,-4.207202196E-1,-4.430152476E-1,-9.767756462E0,9.786844962E0
8.488077292E0,-4.854776561E-1,-4.162474871E-1,-9.765704155E0,9.786619854E0
8.498040292E0,-5.357059240E-1,-3.485632539E-1,-9.761839867E0,9.782739635E0
8.508002292E0,-5.768198967E-1,-2.928184569E-1,-9.758264542E0,9.779682546E0
8.517965292E0,-6.169516444E-1,-2.116573006E-1,-9.752942085E0,9.774727999E0
8.527927292E0,-6.334899068E-1,-1.533527374E-1,-9.751675606E0,9.773433565E0
8.537890292E0,-6.433033943E-1,-7.394446433E-2,-9.748324394E0,9.769807344E0
8.547852292E0,-6.550091505E-1,-2.405620553E-2,-9.748459816E0,9.770470023E0
8.557815292E0,-6.581279635E-1,4.800947011E-2,-9.750185966E0,9.772490149E0
8.567777292E0,-6.510225534E-1,9.980188310E-2,-9.748680115E0,9.770903477E0
8.577740292E0,-6.406084895E-1,1.606252939E-1,-9.750822067E0,9.773162779E0
8.587702292E0,-6.103160381E-1,2.120890617E-1,-9.747861862E0,9.769251677E0
8.597665292E0,-6.012985706E-1,2.644052505E-1,-9.747091293E0,9.769199496E0
8.607628292E0,-5.713123083E-1,3.035139143E-1,-9.748826981E0,9.770268469E0
8.617590292E0,-5.479564071E-1,3.341085911E-1,-9.747608185E0,9.768712817E0
8.627553292E0,-5.160799623E-1,3.782564998E-1,-9.748370171E0,9.769346830E0
8.637515292E0,-4.846160710E-1,4.091526270E-1,-9.750159264E0,9.770765798E0
8.647478292E0,-4.316797554E-1,4.615973830E-1,-9.746700287E0,9.767168783E0
8.657440292E0,-3.613658845E-1,4.764168262E-1,-9.751282692E0,9.769599400E0
8.667403292E0,-2.821261585E-1,4.925141037E-1,-9.753383636E0,9.769885244E0
8.677365292E0,-2.209975421E-1,4.979799986E-1,-9.754321098E0,9.769524251E0
8.687328292E0,-1.496084780E-1,4.856783152E-1,-9.757136345E0,9.770362111E0
8.697291292E0,-8.331280202E-2,4.665680230E-1,-9.758912086E0,9.770414109E0
8.707253292E0,-1.355506107E-2,4.529077113E-1,-9.757522583E0,9.768037474E0
8.717216292E0,5.012990907E-2,4.217154384E-1,-9.759635925E0,9.768871496E0
8.727178292E0,1.096567884E-1,3.981561065E-1,-9.762768745E0,9.771499704E0
8.737141292E0,1.712059081E-1,3.647110462E-1,-9.763573647E0,9.771882928E0
8.747103292E0,2.266488373E-1,3.226103783E-1,-9.765454292E0,9.773410085E0
8.757066292E0,2.798934281E-1,2.871988714E-1,-9.765130043E0,9.773361156E0
8.767028292E0,3.230969012E-1,2.433637828E-1,-9.767382622E0,9.775754744E0
8.776991292E0,3.692180514E-1,1.931288391E-1,-9.767269135E0,9.776152979E0
8.786954292E0,4.139039516E-1,1.184128970E-1,-9.765712738E0,9.775197357E0
8.796916292E0,4.422026873E-1,3.571614996E-2,-9.767043114E0,9.777113585E0
8.806879292E0,4.653708637E-1,-2.498383634E-2,-9.765465736E0,9.776579938E0
8.816841292E0,4.559752345E-1,-1.121690720E-1,-9.766627312E0,9.777908997E0
8.826804292E0,4.560444951E-1,-1.696981788E-1,-9.763857841E0,9.775975348E0
8.836766292E0,4.405803084E-1,-2.501453161E-1,-9.762874603E0,9.776011672E0
8.846729292E0,3.879815340E-1,-3.116839528E-1,-9.762824059E0,9.775500507E0
8.856691292E0,3.646472096E-1,-3.632331491E-1,-9.758876801E0,9.772439937E0
8.866654292E0,3.241102099E-1,-4.176881015E-1,-9.755309105E0,9.769624686E0
8.876616292E0,2.821678221E-1,-4.499472380E-1,-9.753738403E0,9.768187347E0
8.886579292E0,2.339012623E-1,-4.734658003E-1,-9.750928879E0,9.765218567E0
8.896542292E0,1.729915738E-1,-5.050128102E-1,-9.747495651E0,9.762102002E0
8.906504292E0,9.184931219E-2,-4.920052588E-1,-9.745738029E0,9.758581619E0
8.916467292E0,4.833433032E-2,-5.102044940E-1,-9.740829468E0,9.754301797E0
8.926429292E0,-3.333142726E-3,-5.033002496E-1,-9.740242958E0,9.753238187E0
8.936392292E0,-5.314810202E-2,-4.797637463E-1,-9.735010147E0,9.746969813E0
8.946354292E0,-1.133102477E-1,-4.714343250E-1,-9.735737801E0,9.747803858E0
8.956317292E0,-1.631611586E-1,-4.424303770E-1,-9.734273911E0,9.745689035E0
8.966279167E0,-2.172160894E-1,-4.292798340E-1,-9.728443146E0,9.740332132E0
8.976242167E0,-2.708271146E-1,-3.893838227E-1,-9.726393700E0,9.737951606E0
8.986205167E0,-3.195936382E-1,-3.382414579E-1,-9.725641251E0,9.736767693E0
8.996167167E0,-3.630244732E-1,-3.125180006E-1,-9.719055176E0,9.730852367E0
9.006130167E0,-3.983568251E-1,-2.620389760E-1,-9.721611023E0,9.733297153E0
9.016092167E0,-4.319224954E-1,-2.307087481E-1,-9.718498230E0,9.730826862E0
9.026055167E0,-4.654402137E-1,-1.749725789E-1,-9.716844559E0,9.729558992E0
9.036017167E0,-4.932036698E-1,-1.341985166E-1,-9.713419914E0,9.726858976E0
9.045980167E0,-5.155076981E-1,-9.756511450E-2,-9.713102341E0,9.727261908E0
9.055942167E0,-5.348340273E-1,-4.811180755E-2,-9.711249352E0,9.726084832E0
9.065905167E0,-5.390062928E-1,-2.555500250E-4,-9.708659172E0,9.723609966E0
9.075868167E0,-5.421922207E-1,3.050289676E-2,-9.709218025E0,9.724392911E0
9.085830167E0,-5.458472371E-1,1.037379056E-1,-9.709513664E0,9.725398005E0
9.095793167E0,-5.356460214E-1,1.240860522E-1,-9.704737663E0,9.720300773E0
9.105755167E0,-5.192341805E-1,1.665211469E-1,-9.706219673E0,9.721524251E0
9.115718167E0,-5.016301274E-1,2.002056092E-1,-9.704525948E0,9.719544173E0
9.125680167E0,-4.797292650E-1,2.121683806E-1,-9.705844879E0,9.720009280E0
9.135643167E0,-4.426593781E-1,2.440629303E-1,-9.702313423E0,9.715472186E0
9.145605167E0,-4.210854769E-1,2.412590981E-1,-9.703149796E0,9.715278426E0
9.155568167E0,-3.949326873E-1,2.628000677E-1,-9.706814766E0,9.718399488E0
9.165531167E0,-3.716644645E-1,2.720345855E-1,-9.704118729E0,9.715042851E0
9.175493167E0,-3.324605823E-1,2.866771817E-1,-9.703027725E0,9.712953252E0
9.185456167E0,-2.969603837E-1,2.806478739E-1,-9.703804970E0,9.712403389E0
9.195418167E0,-2.587064803E-1,2.835667133E-1,-9.704129219E0,9.711717820E0
9.205381167E0,-2.223610729E-1,2.753032446E-1,-9.707593918E0,9.714042207E0
9.215343167E0,-1.871820539E-1,2.677790225E-1,-9.706530571E0,9.712027515E0
9.225306167E0,-1.517904401E-1,2.585850954E-1,-9.707648277E0,9.712277882E0
9.235268167E0,-1.161754429E-1,2.386675775E-1,-9.702414513E0,9.706044834E0
9.245231167E0,-8.854062855E-2,2.376215458E-1,-9.703824043E0,9.707136782E0
9.255194167E0,-6.501666456E-2,2.367275208E-1,-9.702367783E0,9.705473078E0
9.265156167E0,-2.942171507E-2,2.301578969E-1,-9.704775810E0,9.707549218E0
9.275119167E0,1.227513328E-2,2.077098489E-1,-9.703771591E0,9.706002120E0
9.285081167E0,5.053772777E-2,1.970179081E-1,-9.705324173E0,9.707455249E0
9.295044167E0,7.268191129E-2,1.704885662E-1,-9.700604439E0,9.702374735E0
9.305006167E0,1.033799127E-1,1.619568020E-1,-9.702688217E0,9.704590463E0
9.314969167E0,1.391980946E-1,1.307062060E-1,-9.704790115E0,9.706668399E0
9.324931167E0,1.700981259E-1,1.269156337E-1,-9.703430176E0,9.705750776E0
9.334894167E0,1.950873733E-1,1.097454354E-1,-9.705856323E0,9.708437058E0
9.344857167E0,2.215678096E-1,9.007408470E-2,-9.699547768E0,9.702496201E0
9.354819167E0,2.433836311E-1,6.345152855E-2,-9.701599121E0,9.704858948E0
9.364782167E0,2.595507801E-1,2.345346473E-2,-9.699906349E0,9.703406611E0
9.374744167E0,2.543275058E-1,1.559687220E-2,-9.698036194E0,9.701382982E0
9.384707167E0,2.637684047E-1,-2.989992499E-3,-9.698719025E0,9.702305573E0
9.394669167E0,2.727488577E-1,-3.726356663E-3,-9.698745728E0,9.702580817E0
9.404632167E0,2.786192596E-1,-2.857538313E-2,-9.699519157E0,9.703562085E0
9.414594167E0,2.835317254E-1,-5.545946211E-2,-9.697721481E0,9.702023908E0
9.424557167E0,2.664683461E-1,-5.678629130E-2,-9.699059486E0,9.702885395E0
9.434520167E0,2.602879405E-1,-9.401088953E-2,-9.699625969E0,9.703573146E0
9.444482167E0,2.535167634E-1,-9.004119039E-2,-9.696928978E0,9.700660275E0
9.454445167E0,2.387279719E-1,-1.169774681E-1,-9.697580338E0,9.701223592E0
9.464407167E0,2.295270413E-1,-1.282377094E-1,-9.698454857E0,9.702018047E0
9.474370167E0,2.163577080E-1,-1.375598460E-1,-9.699817657E0,9.703205448E0
9.484332167E0,1.965168864E-1,-1.692241132E-1,-9.700264931E0,9.703731005E0
9.494295167E0,1.745290309E-1,-1.838411391E-1,-9.697191238E0,9.700503897E0
9.504257167E0,1.427983195E-1,-2.140910476E-1,-9.694329262E0,9.697744386E0
9.514220167E0,1.141783893E-1,-2.348429412E-1,-9.692462921E0,9.695979857E0
9.524183167E0,7.956653833E-2,-2.393087596E-1,-9.694618225E0,9.697897816E0
9.534145167E0,3.716821969E-2,-2.819148004E-1,-9.693625450E0,9.697795203E0
9.544108167E0,-5.285755731E-3,-2.750239372E-1,-9.692601204E0,9.696503710E0
9.554070167E0,-5.439524353E-2,-3.016973436E-1,-9.688280106E0,9.693129089E0
9.564033167E0,-1.063769609E-1,-3.091428280E-1,-9.688280106E0,9.693794755E0
9.573995167E0,-1.478786021E-1,-3.087526560E-1,-9.687495232E0,9.693542188E0
9.583958167E0,-1.850243807E-1,-3.233713508E-1,-9.685880661E0,9.693043239E0
9.593920167E0,-2.086402327E-1,-3.104768693E-1,-9.682275772E0,9.689498994E0
9.603883167E0,-2.428524941E-1,-3.226142526E-1,-9.679615021E0,9.688034075E0
9.613846167E0,-2.783137858E-1,-3.163795471E-1,-9.678201675E0,9.687370244E0
9.623808167E0,-3.137882054E-1,-3.303660750E-1,-9.675537109E0,9.686259502E0
9.633771167E0,-3.526352048E-1,-3.408621252E-1,-9.673394203E0,9.685819221E0
9.643733167E0,-3.937986195E-1,-3.366431594E-1,-9.671995163E0,9.685860643E0
9.653696167E0,-4.422625601E-1,-3.409034014E-1,-9.667556763E0,9.683670020E0
9.663658167E0,-4.824942350E-1,-3.234352171E-1,-9.664947510E0,9.682387174E0
9.673621167E0,-5.301403403E-1,-2.768711746E-1,-9.660882950E0,9.679378379E0
9.683583167E0,-5.500543714E-1,-2.692308426E-1,-9.656936646E0,9.676335589E0
9.693546167E0,-5.460769534E-1,-1.924841553E-1,-9.654592514E0,9.671939144E0
9.703508167E0,-5.647051334E-1,-2.094395757E-1,-9.653219223E0,9.671990395E0
9.713471167E0,-5.702375770E-1,-1.446411312E-1,-9.652352333E0,9.670263570E0
9.723434167E0,-5.780265927E-1,-1.469500363E-1,-9.649588585E0,9.668002323E0
9.733396167E0,-6.072702408E-1,-1.095496714E-1,-9.645961761E0,9.665679313E0
9.743359167E0,-6.096557975E-1,-2.263740450E-2,-9.639945984E0,9.659231399E0
9.753321167E0,-6.100835204E-1,-2.346777916E-2,-9.641000748E0,9.660313041E0
9.763284167E0,-6.059504151E-1,8.043841273E-2,-9.640458107E0,9.659817739E0
9.773246167E0,-5.796666145E-1,1.096122786E-1,-9.637481689E0,9.655520781E0
9.783209167E0,-5.503450632E-1,1.627552211E-1,-9.635597229E0,9.652673356E0
9.793172167E0,-5.116751790E-1,2.610985637E-1,-9.635874748E0,9.652982239E0
9.803134167E0,-4.640897810E-1,2.700645328E-1,-9.634222031E0,9.649173452E0
9.813097167E0,-4.095903039E-1,3.434109092E-1,-9.633427620E0,9.648244554E0
9.823059167E0,-3.559429348E-1,3.662252426E-1,-9.634578705E0,9.648104639E0
9.833022167E0,-3.019907773E-1,3.879486620E-1,-9.635233879E0,9.647768369E0
9.842984167E0,-2.443055212E-1,4.308820963E-1,-9.634099007E0,9.646823738E0
9.852947167E0,-1.870179921E-1,4.254356623E-1,-9.635499954E0,9.646700503E0
9.862909167E0,-1.261226982E-1,4.671519697E-1,-9.637200356E0,9.649340319E0
9.872872167E0,-7.018087804E-2,4.832286835E-1,-9.637435913E0,9.649798252E0
9.882834167E0,-6.869281176E-3,5.022793412E-1,-9.637157440E0,9.650240165E0
9.892797167E0,4.947095737E-2,5.029914379E-1,-9.637940407E0,9.651183505E0
9.902760167E0,1.109273881E-1,4.840937853E-1,-9.640953064E0,9.653736461E0
9.912722167E0,1.695845723E-1,4.914973676E-1,-9.644229889E0,9.658234763E0
9.922685167E0,2.172871977E-1,4.627686441E-1,-9.643928528E0,9.657469958E0
9.932647167E0,2.705110013E-1,4.540790021E-1,-9.645680428E0,9.660150871E0
9.942610167E0,3.183811605E-1,3.962653279E-1,-9.645972252E0,9.659356783E0
9.952572167E0,3.608444631E-1,3.837788403E-1,-9.647661209E0,9.662031967E0
9.962535167E0,3.824010491E-1,3.486537933E-1,-9.647875786E0,9.661744005E0
9.972498750E0,4.177401364E-1,2.893063128E-1,-9.649556160E0,9.662926009E0
9.982460750E0,4.663911164E-1,2.473784834E-1,-9.650236130E0,9.664666272E0
9.992423750E0,4.736839235E-1,1.811387539E-1,-9.653206825E0,9.666519007E0
1.000238575E1,4.923439920E-1,1.344935149E-1,-9.652427673E0,9.665911809E0
1.001234875E1,5.173654556E-1,6.099452823E-2,-9.653589249E0,9.667635323E0
1.002231075E1,5.053111911E-1,-2.450969815E-2,-9.651333809E0,9.664584027E0
1.003227375E1,4.883532524E-1,-7.607888430E-2,-9.650675774E0,9.663323434E0
1.004223575E1,4.636245370E-1,-1.672561616E-1,-9.649474144E0,9.662053280E0
1.005219875E1,4.366661608E-1,-2.051311135E-1,-9.648262978E0,9.660317520E0
1.006216175E1,3.995750844E-1,-2.825300992E-1,-9.649518967E0,9.661920088E0
1.007212375E1,3.553807139E-1,-3.549278677E-1,-9.647744179E0,9.660809334E0
1.008208675E1,3.161081374E-1,-3.949953914E-1,-9.645640373E0,9.658898691E0
1.009204875E1,2.434653789E-1,-4.748225808E-1,-9.640071869E0,9.654828715E0
1.010201175E1,1.793427467E-1,-5.099185109E-1,-9.638827324E0,9.653971871E0
1.011197375E1,1.094004214E-1,-5.639993548E-1,-9.635054588E0,9.652167666E0
1.012193675E1,3.264404088E-2,-6.127282381E-1,-9.634971619E0,9.654490127E0
1.013189875E1,-4.769180715E-2,-6.240434647E-1,-9.627535820E0,9.647857312E0
1.014186175E1,-1.280099005E-1,-6.637349725E-1,-9.623747826E0,9.647458363E0
1.015182475E1,-2.053888440E-1,-6.725103855E-1,-9.621746063E0,9.647406496E0
1.016178675E1,-2.867609560E-1,-6.636997461E-1,-9.619830132E0,9.646961229E0
1.017174975E1,-3.747752309E-1,-6.521853209E-1,-9.613388062E0,9.642770981E0
1.018171175E1,-4.395399988E-1,-6.225595474E-1,-9.609419823E0,9.639591544E0
1.019167475E1,-4.994749725E-1,-6.088341475E-1,-9.605925560E0,9.638151282E0
1.020163675E1,-5.609804392E-1,-5.688307881E-1,-9.603084564E0,9.636259682E0
1.021159975E1,-5.940079093E-1,-5.116580725E-1,-9.597721100E0,9.629687933E0
1.022156175E1,-6.371876597E-1,-4.948226213E-1,-9.596774101E0,9.630624626E0
1.023152475E1,-6.968241334E-1,-4.259319305E-1,-9.592367172E0,9.627070679E0
1.024148775E1,-7.352916002E-1,-3.807265460E-1,-9.593001366E0,9.628669775E0
1.025144975E1,-7.604874969E-1,-3.056656122E-1,-9.585650444E0,9.620627169E0
1.026141275E1,-7.794623375E-1,-2.134201825E-1,-9.583546638E0,9.617560807E0
1.027137475E1,-7.633717656E-1,-1.629769802E-1,-9.579698563E0,9.611447472E0
1.028133775E1,-7.682094574E-1,-8.101128787E-2,-9.580685616E0,9.611776395E0
1.029129975E1,-7.615429759E-1,-3.424644843E-2,-9.577936172E0,9.608224698E0
1.030126275E1,-7.509689331E-1,3.714564070E-2,-9.575777054E0,9.605250664E0
1.031122475E1,-7.341681123E-1,1.111548841E-1,-9.574346542E0,9.603096893E0
1.032118775E1,-7.156946659E-1,2.020390481E-1,-9.573390961E0,9.602231674E0
1.033115075E1,-6.716070771E-1,2.801533043E-1,-9.572722435E0,9.600341492E0
1.034111275E1,-6.199432611E-1,3.587971926E-1,-9.571945190E0,9.598708236E0
1.035107575E1,-5.616943240E-1,4.128894508E-1,-9.570982933E0,9.596337453E0
1.036103775E1,-5.026285052E-1,4.761525393E-1,-9.572164536E0,9.597170966E0
1.037100075E1,-4.370423257E-1,5.189202428E-1,-9.572805405E0,9.596816531E0
1.038096275E1,-3.728525937E-1,5.639544129E-1,-9.572601318E0,9.596445156E0
1.039092575E1,-3.060943186E-1,6.063833833E-1,-9.575752258E0,9.599813845E0
1.040088775E1,-2.358334810E-1,6.350244880E-1,-9.575156212E0,9.599087978E0
1.041085075E1,-1.590034217E-1,6.653507352E-1,-9.577451706E0,9.601851637E0
1.042081375E1,-8.133890480E-2,6.817147136E-1,-9.578014374E0,9.602588730E0
1.043077575E1,-5.916322116E-3,6.972712874E-1,-9.577164650E0,9.602515555E0
1.044073875E1,7.042629272E-2,6.977545023E-1,-9.579269409E0,9.604906227E0
1.045070075E1,1.498332322E-1,6.601820588E-1,-9.581734657E0,9.605619678E0
1.046066375E1,2.030394822E-1,6.712113619E-1,-9.587252617E0,9.612864426E0
1.047062575E1,2.528344691E-1,6.338586807E-1,-9.586691856E0,9.610950153E0
1.048058875E1,3.126745224E-1,6.154018641E-1,-9.587437630E0,9.612254944E0
1.049055175E1,3.678581715E-1,5.850942731E-1,-9.588857651E0,9.613732157E0
1.050051375E1,4.303231537E-1,5.350221992E-1,-9.589402199E0,9.613951388E0
1.051047675E1,4.690060914E-1,5.016762018E-1,-9.591402054E0,9.615957523E0
1.052043875E1,5.100153089E-1,4.422093034E-1,-9.592324257E0,9.616046450E0
1.053040175E1,5.536895394E-1,3.670924306E-1,-9.594026566E0,9.616999256E0
1.054036375E1,6.166099310E-1,2.690799534E-1,-9.594731331E0,9.618288888E0
1.055032675E1,6.212243438E-1,1.690942496E-1,-9.598119736E0,9.619688925E0
1.056028875E1,6.186954379E-1,9.425356239E-2,-9.595432281E0,9.615819697E0
1.057025175E1,6.243889928E-1,-2.013878897E-2,-9.593812943E0,9.614130952E0
1.058021475E1,6.179380417E-1,-1.106298119E-1,-9.595823288E0,9.616335630E0
1.059017675E1,5.967286229E-1,-2.013543844E-1,-9.593001366E0,9.613651951E0
1.060013975E1,5.535815954E-1,-2.999314368E-1,-9.589554787E0,9.610201478E0
1.061010175E1,5.121345520E-1,-3.759372532E-1,-9.586362839E0,9.607391066E0
1.062006475E1,4.604050219E-1,-4.803639352E-1,-9.588327408E0,9.611386205E0
1.063002675E1,4.119631946E-1,-5.420752168E-1,-9.580994606E0,9.605155743E0
1.063998975E1,3.477785587E-1,-5.987597108E-1,-9.577517509E0,9.602515543E0
1.064995175E1,2.842741609E-1,-6.489824057E-1,-9.576835632E0,9.603008419E0
1.065991475E1,2.269376069E-1,-6.952558160E-1,-9.574399948E0,9.602292210E0
1.066987775E1,1.687656492E-1,-7.431445122E-1,-9.569663048E0,9.599958149E0
1.067983975E1,9.571149945E-2,-7.664369941E-1,-9.566979408E0,9.598108218E0
1.068980275E1,1.187785156E-2,-8.021973968E-1,-9.563472748E0,9.597065840E0
1.069976475E1,-8.408328146E-2,-8.224293590E-1,-9.560498238E0,9.596175624E0
1.070972775E1,-1.582573801E-1,-8.340359926E-1,-9.555193901E0,9.592830235E0
1.071968975E1,-2.525617778E-1,-8.185752034E-1,-9.550582886E0,9.588925189E0
1.072965275E1,-3.369392455E-1,-7.939862609E-1,-9.545011520E0,9.583902502E0
1.073961475E1,-4.272907972E-1,-7.721425295E-1,-9.537955284E0,9.578693675E0
1.074957775E1,-5.124027729E-1,-7.272152901E-1,-9.538158417E0,9.579554513E0
1.075954075E1,-5.836318731E-1,-6.853673458E-1,-9.533460617E0,9.575866848E0
1.076950275E1,-6.479256153E-1,-5.940060019E-1,-9.527528763E0,9.567991172E0
1.077946575E1,-7.025668621E-1,-5.116742849E-1,-9.526362419E0,9.565928690E0
1.078942775E1,-7.230377793E-1,-4.452744722E-1,-9.526742935E0,9.564511694E0
1.079939075E1,-7.532822490E-1,-3.495600522E-1,-9.525405884E0,9.561536677E0
1.080935275E1,-7.850865126E-1,-2.930054367E-1,-9.522212029E0,9.559013282E0
1.081931575E1,-7.992402911E-1,-1.864478588E-1,-9.522094727E0,9.557396917E0
1.082927875E1,-7.983425856E-1,-1.290873587E-1,-9.522649765E0,9.556928009E0
1.083924075E1,-8.030815125E-1,-4.991060123E-2,-9.519680977E0,9.553625327E0
1.084920375E1,-8.029845953E-1,5.784542114E-2,-9.516206741E0,9.550200055E0
1.085916575E1,-8.100000024E-1,1.408025324E-1,-9.514359474E0,9.549814740E0
1.086912875E1,-7.682784200E-1,2.388329655E-1,-9.515164375E0,9.549117551E0
1.087909075E1,-7.323604226E-1,3.267472684E-1,-9.513066292E0,9.546808149E0
1.088905375E1,-6.929568052E-1,4.020364285E-1,-9.513364792E0,9.547037870E0
1.089901575E1,-6.368509531E-1,5.000568628E-1,-9.515723228E0,9.550111233E0
1.090897875E1,-5.758845806E-1,5.384750962E-1,-9.514531136E0,9.547140997E0
1.091894175E1,-5.182297826E-1,6.150025725E-1,-9.514863014E0,9.548790942E0
1.092890375E1,-4.510081112E-1,6.549273729E-1,-9.519811630E0,9.552965595E0
1.093886675E1,-3.631966114E-1,6.949192882E-1,-9.518072128E0,9.550315264E0
1.094882875E1,-2.887839079E-1,7.178182006E-1,-9.520982742E0,9.552369941E0
1.095879175E1,-2.321870923E-1,7.340536714E-1,-9.525445938E0,9.556509088E0
1.096875304E1,-1.552848667E-1,7.310357690E-1,-9.524878502E0,9.554152875E0
1.097871604E1,-4.916971177E-2,7.409456968E-1,-9.527827263E0,9.556720700E0
1.098867804E1,1.502178982E-2,6.983508468E-1,-9.526535034E0,9.552109155E0
1.099864104E1,9.241184592E-2,7.034997940E-1,-9.531149864E0,9.557524242E0
1.100860404E1,1.665728837E-1,6.301898956E-1,-9.533922195E0,9.556179062E0
1.101856604E1,2.379558086E-1,6.003600955E-1,-9.535640717E0,9.557483931E0
1.102852904E1,3.058203459E-1,5.465461016E-1,-9.537068367E0,9.557610149E0
1.103849104E1,3.597868085E-1,4.877570868E-1,-9.536710739E0,9.555951300E0
1.104845404E1,4.174000621E-1,4.427083731E-1,-9.537734032E0,9.557122160E0
1.105841604E1,4.661611915E-1,3.473784029E-1,-9.539438248E0,9.557136605E0
1.106837904E1,5.139481425E-1,2.662305534E-1,-9.542859077E0,9.560396476E0
1.107834204E1,5.286682248E-1,1.885205805E-1,-9.541730881E0,9.558224642E0
1.108830404E1,5.326904058E-1,8.153155446E-2,-9.541510582E0,9.556716520E0
1.109826704E1,5.403601527E-1,3.734553978E-2,-9.537557602E0,9.552925667E0
1.110822904E1,5.387960672E-1,-8.460246772E-2,-9.539094925E0,9.554673766E0
1.111819204E1,5.259366632E-1,-1.334336847E-1,-9.536797523E0,9.552220733E0
1.112815404E1,5.110054016E-1,-2.115431279E-1,-9.538582802E0,9.554603021E0
1.113811704E1,4.936893284E-1,-3.053478003E-1,-9.533928871E0,9.551584484E0
1.114807904E1,4.618235230E-1,-3.764776289E-1,-9.532956123E0,9.551558450E0
1.115804204E1,4.050405324E-1,-4.697539806E-1,-9.529735565E0,9.549899820E0
1.116800504E1,3.438019454E-1,-4.904938638E-1,-9.526194572E0,9.545007441E0
1.117796704E1,2.662250996E-1,-5.394009948E-1,-9.522228241E0,9.541208514E0
1.118793004E1,2.398033440E-1,-5.525705814E-1,-9.523506165E0,9.542536851E0
1.119789204E1,1.885037571E-1,-5.792547464E-1,-9.518500328E0,9.537972438E0
1.120785504E1,1.360237747E-1,-5.845437646E-1,-9.515994072E0,9.534900999E0
1.121781704E1,6.656932831E-2,-6.029386520E-1,-9.509654999E0,9.528982353E0
1.122778004E1,-1.012385357E-2,-5.938149095E-1,-9.507179260E0,9.525711319E0
1.123774304E1,-5.836178362E-2,-6.063376069E-1,-9.505571365E0,9.525068943E0
1.124770504E1,-1.252015382E-1,-5.721119642E-1,-9.501218796E0,9.519251343E0
1.125766804E1,-1.813622713E-1,-5.364677310E-1,-9.498157501E0,9.515024215E0
1.126763004E1,-2.296312749E-1,-5.176854730E-1,-9.499269485E0,9.516136271E0
1.127759304E1,-2.730188668E-1,-4.851182997E-1,-9.494909286E0,9.511213457E0
1.128755504E1,-3.163453043E-1,-4.477959573E-1,-9.491985321E0,9.507806314E0
1.129751804E1,-3.634863496E-1,-4.013854265E-1,-9.490872383E0,9.506307968E0
1.130748004E1,-4.020816684E-1,-3.480353951E-1,-9.489362717E0,9.504251842E0
1.131744304E1,-4.309428036E-1,-3.107745051E-1,-9.488004684E0,9.502869324E0
1.132740604E1,-4.575190246E-1,-2.548233569E-1,-9.488101006E0,9.502542780E0
1.133736804E1,-4.861458838E-1,-2.001805604E-1,-9.486725807E0,9.501282893E0
1.134733104E1,-5.094309449E-1,-1.407875419E-1,-9.485247612E0,9.499961225E0
1.135729304E1,-5.201508999E-1,-8.515923470E-2,-9.485006332E0,9.499639687E0
1.136725604E1,-5.266790986E-1,-2.827863954E-2,-9.487284660E0,9.501934581E0
1.137721804E1,-5.152462125E-1,1.092113275E-2,-9.484745979E0,9.498736980E0
1.138718104E1,-5.218465924E-1,7.455310225E-2,-9.484791756E0,9.499429282E0
1.139714304E1,-5.177944303E-1,1.107241511E-1,-9.482771873E0,9.497543541E0
1.140710604E1,-5.096784830E-1,1.544849575E-1,-9.483814240E0,9.498756250E0
1.141706904E1,-4.880169928E-1,2.058602124E-1,-9.484160423E0,9.498938780E0
1.142703104E1,-4.611680806E-1,2.760217190E-1,-9.484774590E0,9.499990158E0
1.143699404E1,-4.197757244E-1,3.046391606E-1,-9.484270096E0,9.498441763E0
1.144695604E1,-3.812267184E-1,3.696530461E-1,-9.484428406E0,9.499282045E0
1.145691904E1,-3.391696811E-1,3.691855967E-1,-9.485836029E0,9.499074652E0
1.146688104E1,-3.083459735E-1,4.034386575E-1,-9.486777306E0,9.500357027E0
1.147684404E1,-2.399408966E-1,3.965102732E-1,-9.486682892E0,9.497996858E0
1.148680704E1,-1.617779136E-1,3.735817969E-1,-9.488512993E0,9.497242456E0
1.149676904E1,-1.341607571E-1,3.871740103E-1,-9.487298965E0,9.496143664E0
1.150673204E1,-8.201472461E-2,3.495917320E-1,-9.491347313E0,9.498137428E0
1.151669404E1,-3.424162790E-2,3.143747151E-1,-9.486651421E0,9.491920729E0
1.152665704E1,6.433628500E-3,2.805672288E-1,-9.490756989E0,9.494905348E0
1.153661904E1,3.847067058E-2,2.451675534E-1,-9.492129326E0,9.495372887E0
1.154658204E1,7.212077826E-2,2.218593061E-1,-9.492840767E0,9.495706861E0
1.155654404E1,1.056129560E-1,1.606241763E-1,-9.492543221E0,9.494489508E0
1.156650704E1,1.371189654E-1,1.235867962E-1,-9.492520332E0,9.494315013E0
1.157647004E1,1.515690684E-1,8.217742294E-2,-9.492321968E0,9.493887647E0
1.158643204E1,1.675624251E-1,3.286926448E-2,-9.491485596E0,9.493021456E0
1.159639504E1,1.844096780E-1,-1.307545044E-2,-9.488995552E0,9.490796304E0
1.160635704E1,1.968085617E-1,-6.831580400E-2,-9.492949486E0,9.495235152E0
1.161632004E1,1.962753981E-1,-1.066415533E-1,-9.488512039E0,9.491140984E0
1.162628204E1,1.616146117E-1,-1.358329952E-1,-9.486186981E0,9.488535890E0
1.163624504E1,1.524452567E-1,-1.364249587E-1,-9.484778404E0,9.486984384E0
1.164620804E1,1.679349989E-1,-1.894394457E-1,-9.483469009E0,9.486847417E0
1.165617004E1,1.582833678E-1,-1.833843291E-1,-9.479767799E0,9.482862488E0
1.166613304E1,1.553320587E-1,-2.063018978E-1,-9.479185104E0,9.482702081E0
1.167609504E1,1.364330202E-1,-2.374107540E-1,-9.475178719E0,9.479134432E0
1.168605804E1,9.229937196E-2,-2.569559515E-1,-9.473777771E0,9.477711263E0
1.169602004E1,4.732746631E-2,-2.563380003E-1,-9.470092773E0,9.473679655E0
1.170598304E1,2.493347973E-2,-2.598483264E-1,-9.467407227E0,9.471005354E0
1.171594504E1,-3.897546791E-3,-2.167282403E-1,-9.467093468E0,9.469574703E0
1.172590804E1,-2.211995982E-2,-2.193416059E-1,-9.464075089E0,9.466642346E0
1.173587104E1,-4.360404983E-2,-1.948515773E-1,-9.461579323E0,9.463685949E0
1.174583304E1,-6.320677698E-2,-1.697254479E-1,-9.457935333E0,9.459669264E0
1.175579604E1,-8.226098865E-2,-1.543937176E-1,-9.456758499E0,9.458376478E0
1.176575804E1,-9.911214560E-2,-1.180684716E-1,-9.456588745E0,9.457845107E0
1.177572104E1,-1.203753427E-1,-1.098187566E-1,-9.452974319E0,9.454378555E0
1.178568304E1,-1.349596083E-1,-7.585173100E-2,-9.452041626E0,9.453309393E0
1.179564604E1,-1.465546638E-1,-5.738532543E-2,-9.451801300E0,9.453111613E0
1.180560904E1,-1.595578194E-1,-2.463456616E-2,-9.449270248E0,9.450649384E0
1.181557104E1,-1.669044048E-1,3.352325410E-3,-9.445829391E0,9.447304442E0
1.182553404E1,-1.714927703E-1,2.163359523E-2,-9.448483467E0,9.450064424E0
1.183549604E1,-1.626551747E-1,4.961575568E-2,-9.445023537E0,9.446554294E0
1.184545904E1,-1.457923055E-1,5.715143681E-2,-9.446713448E0,9.448011253E0
1.185542104E1,-1.408296674E-1,7.355219126E-2,-9.447984695E0,9.449320490E0
1.186538404E1,-1.326476336E-1,7.544276863E-2,-9.448387146E0,9.449619393E0
1.187534704E1,-1.230203956E-1,6.353492290E-2,-9.447604179E0,9.448618705E0
1.188530904E1,-1.237849891E-1,6.119746342E-2,-9.445986748E0,9.446996004E0
1.189527204E1,-1.198780462E-1,5.300845206E-2,-9.444243431E0,9.445152970E0
1.190523404E1,-1.201387644E-1,4.509326816E-2,-9.446497917E0,9.447369455E0
1.191519704E1,-1.203453466E-1,3.582330048E-2,-9.444012642E0,9.444847330E0
1.192515904E1,-1.220761389E-1,2.223212644E-2,-9.446214676E0,9.447029615E0
1.193512204E1,-1.284393221E-1,2.186737582E-2,-9.443001747E0,9.443900510E0
1.194508404E1,-1.298808903E-1,1.228985004E-2,-9.441762924E0,9.442664200E0
1.195504704E1,-1.294259280E-1,7.116822526E-3,-9.444229126E0,9.445118607E0
1.196501004E1,-1.300134212E-1,-9.275213815E-4,-9.441682816E0,9.442577971E0
1.197497292E1,-1.307090372E-1,-7.007252425E-3,-9.440790176E0,9.441697576E0
1.198493592E1,-1.236545891E-1,-1.492562797E-2,-9.441086769E0,9.441908314E0
1.199489792E1,-1.239922792E-1,-4.142967612E-2,-9.440197945E0,9.441103100E0
1.200486092E1,-1.175213307E-1,-5.855779722E-2,-9.439301491E0,9.440214665E0
1.201482292E1,-1.073409468E-1,-8.085203171E-2,-9.437521935E0,9.438478659E0
1.202478592E1,-1.066802219E-1,-1.003945768E-1,-9.435940742E0,9.437077802E0
1.203474892E1,-1.106618345E-1,-9.543527663E-2,-9.434056282E0,9.435187961E0
1.204471092E1,-1.020374522E-1,-1.120368913E-1,-9.433785439E0,9.435002470E0
1.205467392E1,-8.009620011E-2,-1.123758629E-1,-9.435317039E0,9.436326159E0
1.206463592E1,-6.830505282E-2,-1.188042015E-1,-9.432798386E0,9.433793797E0
1.207459892E1,-5.290070549E-2,-1.285529286E-1,-9.431028366E0,9.432052819E0
1.208456092E1,-3.560933471E-2,-1.292336285E-1,-9.429594994E0,9.430547762E0
1.209452392E1,-2.107351832E-2,-1.511693150E-1,-9.430718422E0,9.431953467E0
1.210448592E1,-1.422253624E-2,-1.515448093E-1,-9.430402756E0,9.431631049E0
1.211444892E1,-1.022905391E-2,-1.569194198E-1,-9.429274559E0,9.430585721E0
1.212441192E1,-1.119444985E-2,-1.695068479E-1,-9.425806999E0,9.427337666E0
1.213437392E1,-2.122586966E-2,-1.809960455E-1,-9.426042557E0,9.427804007E0
1.214433692E1,-4.127654061E-2,-1.785256863E-1,-9.421972275E0,9.423753855E0
1.215429892E1,-6.098730490E-2,-1.731847823E-1,-9.418887138E0,9.420676586E0
1.216426192E1,-7.928881049E-2,-1.548734158E-1,-9.416078568E0,9.417685920E0
1.217422392E1,-9.373548627E-2,-1.313343346E-1,-9.411365509E0,9.412748578E0
1.218418692E1,-1.027244478E-1,-1.139015332E-1,-9.414581299E0,9.415830654E0
1.219414992E1,-1.148973182E-1,-7.190535218E-2,-9.414081573E0,9.415057283E0
1.220411192E1,-1.236018538E-1,-4.924904928E-2,-9.411382675E0,9.412323132E0
1.221407492E1,-1.279387325E-1,-2.416335046E-2,-9.408902168E0,9.409802984E0
1.222403692E1,-1.315116286E-1,9.326964617E-3,-9.410898209E0,9.411821683E0
1.223399992E1,-1.392110884E-1,3.553904220E-2,-9.406811714E0,9.407908874E0
1.224396192E1,-1.398084313E-1,7.082059234E-2,-9.406995773E0,9.408301198E0
1.225392492E1,-1.382568777E-1,1.003879681E-1,-9.405713081E0,9.407264814E0
1.226388792E1,-1.336006075E-1,1.287018955E-1,-9.404823303E0,9.406652681E0
1.227384992E1,-1.308296025E-1,1.519982368E-1,-9.404586792E0,9.406724859E0
1.228381292E1,-1.171068698E-1,1.753956974E-1,-9.404191971E0,9.406556452E0
1.229377492E1,-8.370389789E-2,1.934616715E-1,-9.406154633E0,9.408516288E0
1.230373792E1,-7.705185562E-2,1.969512105E-1,-9.404444695E0,9.406822353E0
1.231369992E1,-6.795582175E-2,2.053627819E-1,-9.404163361E0,9.406650859E0
1.232366292E1,-6.175651029E-2,2.018918842E-1,-9.404045105E0,9.406414755E0
1.233362492E1,-5.273770913E-2,1.984152943E-1,-9.407561302E0,9.409801249E0
1.234358792E1,-4.091780260E-2,1.907880008E-1,-9.404944420E0,9.406968368E0
1.235355092E1,-7.238228340E-3,1.569302231E-1,-9.403679848E0,9.404991981E0
1.236351292E1,-2.295487374E-2,1.375269592E-1,-9.406160355E0,9.407193695E0
1.237347592E1,-2.551391535E-2,1.016042903E-1,-9.405263901E0,9.405847300E0
1.238343792E1,-2.855497971E-2,5.845096335E-2,-9.405374527E0,9.405599497E0
1.239340092E1,-4.017683491E-2,3.067418374E-2,-9.401244164E0,9.401380053E0
1.240336292E1,-5.087155476E-2,6.467913277E-3,-9.399267197E0,9.399407087E0
1.241332592E1,-6.053509563E-2,-1.796308160E-2,-9.401662827E0,9.401874870E0
1.242328892E1,-7.249908149E-2,-3.523102030E-2,-9.395401001E0,9.395746767E0
1.243325092E1,-8.936169744E-2,-4.465055466E-2,-9.394029617E0,9.394560747E0
1.244321392E1,-1.128169522E-1,-5.261580274E-2,-9.391527176E0,9.392352143E0
1.245317592E1,-1.241047606E-1,-4.827431589E-2,-9.390424728E0,9.391368856E0
1.246313892E1,-1.263617873E-1,-5.253430828E-2,-9.387418747E0,9.388416154E0
1.247310092E1,-1.358501017E-1,-4.070406035E-2,-9.386215210E0,9.387286511E0
1.248306392E1,-1.289932579E-1,-2.751422115E-2,-9.385448456E0,9.386375179E0
1.249302692E1,-1.283462793E-1,-3.423541039E-2,-9.386260986E0,9.387200868E0
1.250298892E1,-1.255411804E-1,-2.280166000E-2,-9.381500244E0,9.382367896E0
1.251295192E1,-1.220037937E-1,-2.310018614E-2,-9.381250381E0,9.382072120E0
1.252291392E1,-1.151616052E-1,-2.241388895E-2,-9.381504059E0,9.382237632E0
1.253287692E1,-1.072421521E-1,-2.038367465E-2,-9.379480362E0,9.380115577E0
1.254283892E1,-9.936425835E-2,-2.299303934E-2,-9.378708839E0,9.379263374E0
1.255280192E1,-9.153038263E-2,-2.009324171E-2,-9.378540993E0,9.379009154E0
1.256276392E1,-8.376353979E-2,-2.386747487E-2,-9.378529549E0,9.378933974E0
1.257272692E1,-7.454001904E-2,-2.986126021E-2,-9.379612923E0,9.379956636E0
1.258268992E1,-5.920420587E-2,-3.389701620E-2,-9.375885010E0,9.376133204E0
1.259265192E1,-5.046045780E-2,-3.957690299E-2,-9.376313210E0,9.376532514E0
1.260261492E1,-4.323104024E-2,-4.492026940E-2,-9.374796867E0,9.375004163E0
1.261257692E1,-3.492082655E-2,-5.124899745E-2,-9.374040604E0,9.374245738E0
1.262253992E1,-3.380655870E-2,-6.470222026E-2,-9.371294975E0,9.371579311E0
1.263250192E1,-4.007695243E-2,-7.080697268E-2,-9.371777534E0,9.372130705E0
1.264246492E1,-3.287683055E-2,-6.103796139E-2,-9.373559952E0,9.373816335E0
1.265242792E1,-3.881579265E-2,-6.344850361E-2,-9.368393898E0,9.368689162E0
1.266238992E1,-3.829621151E-2,-3.804088384E-2,-9.368444443E0,9.368599948E0
1.267235292E1,-3.631267324E-2,-4.613409564E-2,-9.367549896E0,9.367733879E0
1.268231492E1,-3.666314483E-2,-2.367752418E-2,-9.366345406E0,9.366447089E0
1.269227792E1,-3.063303418E-2,-1.087076776E-2,-9.365145683E0,9.365202092E0
1.270223992E1,-2.621990815E-2,-5.438451190E-3,-9.369012833E0,9.369051100E0
1.271220292E1,-1.437497605E-2,1.717025600E-2,-9.367828369E0,9.367855134E0
1.272216492E1,-5.080011208E-3,2.326756343E-2,-9.365175247E0,9.365205529E0
1.273212792E1,8.533005603E-3,4.235566035E-2,-9.368902206E0,9.369001834E0
1.274209092E1,2.217904292E-2,4.885829985E-2,-9.368501663E0,9.368655317E0
1.275205292E1,3.097555414E-2,4.837552086E-2,-9.367565155E0,9.367741276E0
1.276201592E1,4.139676690E-2,4.595204443E-2,-9.369842529E0,9.370046654E0
1.277197792E1,5.396608263E-2,2.629531920E-2,-9.367186546E0,9.367378906E0
1.278194092E1,5.296206847E-2,3.201206028E-2,-9.366379738E0,9.366584177E0
1.279190292E1,4.408434406E-2,2.262247726E-2,-9.367876053E0,9.368007096E0
1.280186592E1,4.319724813E-2,1.920564100E-2,-9.367939949E0,9.368059231E0
1.281182892E1,3.251051158E-2,6.427107845E-3,-9.365028381E0,9.365087016E0
1.282179092E1,4.019320011E-2,-5.297192372E-3,-9.368266106E0,9.368353824E0
1.283175392E1,3.912624717E-2,-2.525071241E-2,-9.366803169E0,9.366918921E0
1.284171592E1,1.512024738E-2,-4.472667351E-2,-9.365951538E0,9.366070537E0
1.285167892E1,1.264263527E-3,-6.624294072E-2,-9.363737106E0,9.363971504E0
1.286164092E1,-2.187381312E-2,-9.094481915E-2,-9.365638733E0,9.366105824E0
1.287160392E1,-4.841959104E-2,-9.916336834E-2,-9.362669945E0,9.363320262E0
1.288156692E1,-7.115153223E-2,-1.117683798E-1,-9.360918045E0,9.361855658E0
1.289152892E1,-9.914036840E-2,-1.281915903E-1,-9.361060143E0,9.362462758E0
1.290149192E1,-1.192445680E-1,-1.426205933E-1,-9.356941223E0,9.358787793E0
1.291145392E1,-1.415354013E-1,-1.559227705E-1,-9.356060982E0,9.358430492E0
1.292141692E1,-1.418443173E-1,-1.700668186E-1,-9.352704048E0,9.355325518E0
1.293137892E1,-1.551440656E-1,-1.812905967E-1,-9.352346420E0,9.355389865E0
1.294134192E1,-1.792589873E-1,-1.978011280E-1,-9.351933479E0,9.355742561E0
1.295130492E1,-2.055131495E-1,-2.113601416E-1,-9.348446846E0,9.353093991E0
1.296126692E1,-2.413864583E-1,-2.279119492E-1,-9.346398354E0,9.352292418E0
1.297122900E1,-2.904338837E-1,-2.325423956E-1,-9.344214439E0,9.351618646E0
1.298119100E1,-3.324766755E-1,-2.336997986E-1,-9.338006020E0,9.346845070E0
1.299115400E1,-3.602204323E-1,-2.273789197E-1,-9.336385727E0,9.346098564E0
1.300111600E1,-3.911770284E-1,-1.847353131E-1,-9.335178375E0,9.345196729E0
1.301107900E1,-4.088406265E-1,-1.354933083E-1,-9.332327843E0,9.342261614E0
1.302104100E1,-3.902203143E-1,-9.848655015E-2,-9.328794479E0,9.337471710E0
1.303100400E1,-3.858075440E-1,-5.237346143E-2,-9.327186584E0,9.335309316E0
1.304096700E1,-3.725109100E-1,-3.469859436E-2,-9.326346397E0,9.333847304E0
1.305092900E1,-3.556168079E-1,2.200043062E-3,-9.324903488E0,9.331682229E0
1.306089200E1,-3.344832957E-1,7.926371880E-3,-9.325050354E0,9.331050638E0
1.307085400E1,-3.150838315E-1,2.380626276E-2,-9.324559212E0,9.329911524E0
1.308081700E1,-2.932901382E-1,5.747527629E-2,-9.321861267E0,9.326651060E0
1.309077900E1,-2.822710276E-1,6.784594059E-2,-9.321048737E0,9.325568591E0
1.310074200E1,-2.874889672E-1,1.179375947E-1,-9.320162773E0,9.325341458E0
1.311070500E1,-2.446283251E-1,1.356169879E-1,-9.318543434E0,9.322740301E0
1.312066700E1,-2.273859531E-1,1.601513624E-1,-9.317839622E0,9.321989491E0
1.313063000E1,-1.954991221E-1,2.145743817E-1,-9.314736366E0,9.319258321E0
1.314059200E1,-1.677652299E-1,2.267436981E-1,-9.314461708E0,9.318731394E0
1.315055500E1,-1.318859011E-1,2.504522204E-1,-9.315190315E0,9.319489837E0
1.316051700E1,-1.085475609E-1,2.542695999E-1,-9.316788673E0,9.320889807E0
1.317048000E1,-7.873009145E-2,2.884273529E-1,-9.313155174E0,9.317952998E0
1.318044300E1,-5.225720629E-2,3.031069636E-1,-9.314084053E0,9.319161249E0
1.319040500E1,-1.818746515E-2,3.249764740E-1,-9.314089775E0,9.319775149E0
1.320036800E1,1.757559180E-2,3.308959007E-1,-9.313741684E0,9.319634390E0
1.321033000E1,5.768651888E-2,3.248122633E-1,-9.312617302E0,9.318458658E0
1.322029300E1,7.990340889E-2,3.387054205E-1,-9.315945625E0,9.322443285E0
1.323025500E1,1.128197238E-1,3.198047876E-1,-9.315585136E0,9.321755727E0
1.324021800E1,1.431643069E-1,3.239122033E-1,-9.315215111E0,9.321944416E0
1.325018000E1,1.751014590E-1,3.072581589E-1,-9.315143585E0,9.321854328E0
1.326014300E1,1.917147934E-1,2.939101458E-1,-9.317715645E0,9.324321025E0
1.327010600E1,2.482268065E-1,2.608163059E-1,-9.318355560E0,9.325309220E0
1.328006800E1,2.509216666E-1,2.258791029E-1,-9.317286491E0,9.323401236E0
1.329003100E1,2.722351253E-1,1.982510388E-1,-9.318692207E0,9.324775595E0
1.329999300E1,2.868787646E-1,1.628666818E-1,-9.316830635E0,9.322669042E0
1.330995600E1,3.019181788E-1,1.270727366E-1,-9.317838669E0,9.323594775E0
1.331991800E1,3.126440644E-1,8.473007381E-2,-9.319483757E0,9.325111420E0
1.332988100E1,3.345741332E-1,1.074368693E-2,-9.320477486E0,9.326486790E0
1.333984400E1,3.236636817E-1,-2.800770476E-2,-9.315946579E0,9.321609479E0
1.334980600E1,3.132587075E-1,-9.631816298E-2,-9.318129539E0,9.323891158E0
1.335976900E1,2.966121137E-1,-1.408014745E-1,-9.316827774E0,9.322611414E0
1.336973100E1,2.786321342E-1,-1.909221113E-1,-9.315377235E0,9.321498815E0
1.337969400E1,2.528156936E-1,-2.389783263E-1,-9.315714836E0,9.322208393E0
1.338965600E1,2.288255244E-1,-2.778517008E-1,-9.312711716E0,9.319665347E0
1.339961900E1,2.004442215E-1,-3.255569339E-1,-9.311625481E0,9.319470709E0
1.340958200E1,1.708397120E-1,-3.617285192E-1,-9.309579849E0,9.318170995E0
1.341954400E1,1.324553192E-1,-4.006775022E-1,-9.306981087E0,9.316543555E0
1.342950700E1,9.152038395E-2,-4.326997995E-1,-9.304647446E0,9.315152666E0
1.343946900E1,4.821312428E-2,-4.573345780E-1,-9.304990768E0,9.316347601E0
1.344943200E1,3.900078591E-3,-4.917665124E-1,-9.299183846E0,9.312178569E0
1.345939400E1,-4.111639783E-2,-5.016734600E-1,-9.297777176E0,9.311392336E0
1.346935700E1,-8.558230847E-2,-5.153623223E-1,-9.296791077E0,9.311457833E0
1.347932000E1,-1.365211159E-1,-5.238775015E-1,-9.293524742E0,9.309279660E0
1.348928200E1,-1.847033948E-1,-5.236459374E-1,-9.288139343E0,9.304722074E0
1.349924500E1,-2.429027855E-1,-5.120702386E-1,-9.286022186E0,9.303301873E0
1.350920700E1,-3.036144972E-1,-4.898379445E-1,-9.284338951E0,9.302207949E0
1.351917000E1,-3.326184452E-1,-4.755335748E-1,-9.278771400E0,9.296900877E0
1.352913200E1,-3.814546168E-1,-4.371624291E-1,-9.278545380E0,9.296667305E0
1.353909500E1,-4.157643914E-1,-4.011389017E-1,-9.276230812E0,9.294204136E0
1.354905800E1,-4.532491863E-1,-3.554615676E-1,-9.271147728E0,9.289024058E0
1.355902000E1,-4.812304676E-1,-3.220516741E-1,-9.270893097E0,9.288958976E0
1.356898300E1,-5.052987337E-1,-2.773697376E-1,-9.268527031E0,9.286433874E0
1.357894500E1,-5.370017886E-1,-2.325854748E-1,-9.268446922E0,9.286903428E0
1.358890800E1,-5.596378446E-1,-1.831701100E-1,-9.264139175E0,9.282834722E0
1.359887000E1,-5.687389374E-1,-1.247089356E-1,-9.259769440E0,9.278057252E0
1.360883300E1,-5.887571573E-1,-6.009697542E-2,-9.258974075E0,9.277868697E0
1.361879500E1,-5.863019824E-1,1.058491878E-2,-9.258394241E0,9.276945941E0
1.362875800E1,-5.779151320E-1,8.743181080E-2,-9.253295898E0,9.271737443E0
1.363872100E1,-5.562463403E-1,1.424843967E-1,-9.253197670E0,9.270996652E0
1.364868300E1,-5.332521200E-1,2.226339430E-1,-9.253493309E0,9.271518868E0
1.365864600E1,-5.062080026E-1,2.697050571E-1,-9.251021385E0,9.268785467E0
1.366860800E1,-4.746115506E-1,3.341059387E-1,-9.251459122E0,9.269648256E0
1.367857100E1,-4.367781579E-1,3.795983195E-1,-9.250858307E0,9.268940040E0
1.368853300E1,-3.987239897E-1,4.188311398E-1,-9.251900673E0,9.269955038E0
1.369849600E1,-3.533778191E-1,4.678879082E-1,-9.250909805E0,9.269472865E0
1.370845900E1,-2.754219472E-1,5.003231168E-1,-9.252753258E0,9.270362631E0
1.371842100E1,-2.237147987E-1,5.019937158E-1,-9.252309799E0,9.268618161E0
1.372838400E1,-1.698364764E-1,5.381861329E-1,-9.252553940E0,9.269748818E0
1.373834600E1,-1.165897772E-1,5.094370246E-1,-9.252438545E0,9.267186104E0
1.374830900E1,-6.468474865E-2,5.181083083E-1,-9.255805016E0,9.270520310E0
1.375827100E1,-1.261542737E-2,5.076956153E-1,-9.255781174E0,9.269703292E0
1.376823400E1,3.793536127E-2,4.901624322E-1,-9.257352829E0,9.270398034E0
1.377819700E1,8.745151758E-2,4.833977222E-1,-9.258086205E0,9.271110036E0
1.378815900E1,1.383791566E-1,4.466809332E-1,-9.256264687E0,9.268069302E0
1.379812200E1,1.842904538E-1,4.201867282E-1,-9.262344360E0,9.273701683E0
1.380808400E1,2.379946113E-1,3.865381479E-1,-9.261669159E0,9.272786463E0
1.381804700E1,2.939380109E-1,3.367418349E-1,-9.261866570E0,9.272646169E0
1.382800900E1,3.355319798E-1,2.996267378E-1,-9.261024475E0,9.271943282E0
1.383797200E1,3.671216071E-1,2.352152467E-1,-9.262207031E0,9.272463727E0
1.384793500E1,3.872867823E-1,1.593354344E-1,-9.260639191E0,9.270103400E0
1.385789700E1,3.953007758E-1,1.129133478E-1,-9.259171486E0,9.268293734E0
1.386786000E1,3.900927603E-1,2.435783483E-2,-9.258815765E0,9.267061834E0
1.387782200E1,3.721489310E-1,-1.372856461E-2,-9.258038521E0,9.265525379E0
1.388778500E1,3.700904846E-1,-7.813666016E-2,-9.258222580E0,9.265946128E0
1.389774700E1,3.482443094E-1,-1.353019327E-1,-9.257012367E0,9.264548488E0
1.390771000E1,3.315708041E-1,-1.602520943E-1,-9.254388809E0,9.261713241E0
1.391767300E1,3.077808022E-1,-2.290340960E-1,-9.254216194E0,9.262165136E0
1.392763500E1,2.885592580E-1,-2.583921254E-1,-9.253592491E0,9.261695683E0
1.393759800E1,2.559222281E-1,-3.019553125E-1,-9.251986504E0,9.260449636E0
1.394756000E1,2.274183035E-1,-3.440208733E-1,-9.247165680E0,9.256356873E0
1.395752300E1,1.974782497E-1,-3.653477430E-1,-9.244711876E0,9.254035568E0
1.396748500E1,1.629906595E-1,-3.991674483E-1,-9.243219376E0,9.253269964E0
1.397744900E1,1.242525876E-1,-4.212197661E-1,-9.243736267E0,9.254162575E0
1.398741200E1,7.686368376E-2,-4.431696534E-1,-9.240005493E0,9.250946378E0
1.399737400E1,3.712346777E-2,-4.555762708E-1,-9.236191750E0,9.247495116E0
1.400733700E1,-3.756235354E-3,-4.639016986E-1,-9.235496521E0,9.247140903E0
1.401729900E1,-4.206740484E-2,-4.587066472E-1,-9.234652519E0,9.246133711E0
1.402726200E1,-8.217079192E-2,-4.599256516E-1,-9.234873772E0,9.246684661E0
1.403722400E1,-1.256673932E-1,-4.494032264E-1,-9.229525566E0,9.241314719E0
1.404718700E1,-1.624398082E-1,-4.488129020E-1,-9.227227211E0,9.239563935E0
1.405714900E1,-1.976640970E-1,-4.343474209E-1,-9.229550362E0,9.241879065E0
1.406711200E1,-2.351268828E-1,-4.216131270E-1,-9.220956802E0,9.233584712E0
1.407707500E1,-2.687916160E-1,-4.002029002E-1,-9.222114563E0,9.234706726E0
1.408703700E1,-3.003434241E-1,-3.809356391E-1,-9.222960472E0,9.235708852E0
1.409700000E1,-3.309074640E-1,-3.573472202E-1,-9.219045639E0,9.231901174E0
1.410696200E1,-3.577683866E-1,-3.271797597E-1,-9.218194008E0,9.230934166E0
1.411692500E1,-3.821823895E-1,-2.929320335E-1,-9.213601112E0,9.226175698E0
1.412688700E1,-4.042489827E-1,-2.554049790E-1,-9.214917183E0,9.227315299E0
1.413685000E1,-4.227832258E-1,-2.186469734E-1,-9.213020325E0,9.225307348E0
1.414681300E1,-4.388523996E-1,-1.659779400E-1,-9.213036537E0,9.224976008E0
1.415677500E1,-4.535953999E-1,-1.195169687E-1,-9.208127975E0,9.220067999E0
1.416673800E1,-4.551492631E-1,-7.448031008E-2,-9.209469795E0,9.221010903E0
1.417670000E1,-4.581690133E-1,-2.363470569E-2,-9.207065582E0,9.218488709E0
1.418666300E1,-4.620623887E-1,1.875484549E-2,-9.209135056E0,9.220738683E0
1.419662500E1,-4.554779828E-1,7.632759213E-2,-9.210264206E0,9.221835654E0
1.420658800E1,-4.510463178E-1,1.159469262E-1,-9.207516670E0,9.219286833E0
1.421655100E1,-4.440802932E-1,1.635384113E-1,-9.206120491E0,9.218275686E0
1.422651300E1,-4.310820103E-1,2.065293789E-1,-9.205801010E0,9.218202554E0
1.423647600E1,-3.960033655E-1,2.368209809E-1,-9.207527161E0,9.219081259E0
1.424643800E1,-3.723348975E-1,2.682248652E-1,-9.206295013E0,9.217724542E0
1.425640100E1,-3.455088735E-1,3.134924769E-1,-9.205524445E0,9.217338782E0
1.426636300E1,-2.921855450E-1,3.199408650E-1,-9.204550743E0,9.214743020E0
1.427632600E1,-2.668871284E-1,3.415806293E-1,-9.208195686E0,9.218393237E0
1.428628900E1,-2.327489555E-1,3.416619301E-1,-9.208153725E0,9.217429141E0
1.429625100E1,-2.116194367E-1,3.272867203E-1,-9.210127831E0,9.218370465E0
1.430621400E1,-1.774493605E-1,3.367309570E-1,-9.207755089E0,9.215618796E0
1.431617600E1,-1.492941529E-1,3.121137619E-1,-9.207191467E0,9.213689731E0
1.432613900E1,-1.165380180E-1,3.141482174E-1,-9.207880020E0,9.213974424E0
1.433610100E1,-7.699486613E-2,3.129468560E-1,-9.208356857E0,9.213994788E0
1.434606400E1,-3.758539632E-2,2.890109122E-1,-9.207363129E0,9.211974585E0
1.435602700E1,2.106623957E-3,2.764801979E-1,-9.206727982E0,9.210878670E0
1.436598900E1,3.206240758E-2,2.407237887E-1,-9.205166817E0,9.208369675E0
1.437595200E1,5.801118165E-2,2.171601504E-1,-9.205838203E0,9.208581913E0
1.438591400E1,9.128212929E-2,1.898264438E-1,-9.206278801E0,9.208688064E0
1.439587700E1,1.177667305E-1,1.504252404E-1,-9.206907272E0,9.208889090E0
1.440583900E1,1.359236240E-1,1.223009899E-1,-9.207301140E0,9.209116518E0
1.441580200E1,1.497006863E-1,8.158206195E-2,-9.206873894E0,9.208452249E0
1.442576500E1,1.583319008E-1,4.306178167E-2,-9.208112717E0,9.209574535E0
1.443572700E1,1.727654338E-1,2.628605347E-3,-9.204214096E0,9.205835754E0
1.444569000E1,1.785660684E-1,-3.750158846E-2,-9.204488754E0,9.206297054E0
1.445565200E1,1.785029471E-1,-7.000707090E-2,-9.201435089E0,9.203432620E0
1.446561500E1,1.755018383E-1,-1.020504087E-1,-9.200528145E0,9.202767699E0
1.447557700E1,1.581819654E-1,-1.335556060E-1,-9.198120117E0,9.200449572E0
1.448554000E1,1.405365616E-1,-1.699470431E-1,-9.198838234E0,9.201481260E0
1.449550200E1,1.258614808E-1,-1.844349056E-1,-9.195679665E0,9.198390177E0
1.450546500E1,9.840580821E-2,-2.124951035E-1,-9.193325996E0,9.196307996E0
1.451542800E1,8.114905655E-2,-2.183540463E-1,-9.192206383E0,9.195157521E0
1.452539000E1,4.807003587E-2,-2.608599365E-1,-9.188195229E0,9.192023183E0
1.453535300E1,5.994488485E-3,-2.414396405E-1,-9.185572624E0,9.188747111E0
1.454531500E1,-2.342750691E-2,-2.484797984E-1,-9.182437897E0,9.185829129E0
1.455527800E1,-7.033962756E-2,-2.339690179E-1,-9.177258492E0,9.180509931E0
1.456524000E1,-1.126536056E-1,-1.961807013E-1,-9.178244591E0,9.181032157E0
1.457520300E1,-1.205602586E-1,-1.927500218E-1,-9.176402092E0,9.179217979E0
1.458516600E1,-1.428564340E-1,-1.413024068E-1,-9.175280571E0,9.177480476E0
1.459512800E1,-1.575115472E-1,-1.079484373E-1,-9.172414780E0,9.174402195E0
1.460509100E1,-1.661653817E-1,-8.189971745E-2,-9.171175957E0,9.173046764E0
1.461505300E1,-1.736443341E-1,-3.980073705E-2,-9.170955658E0,9.172685764E0
1.462501600E1,-1.779569685E-1,-1.626062766E-2,-9.171402931E0,9.173143671E0
1.463497800E1,-1.750610471E-1,2.225560509E-2,-9.168252945E0,9.169951131E0
1.464494100E1,-1.725208461E-1,4.545580596E-2,-9.170073509E0,9.171808864E0
1.465490400E1,-1.649910212E-1,7.569307834E-2,-9.170395851E0,9.172192298E0
1.466486600E1,-1.501166373E-1,1.035184562E-1,-9.171044350E0,9.172857000E0
1.467482900E1,-1.304846108E-1,1.091457158E-1,-9.170082092E0,9.171659861E0
1.468479100E1,-1.021714211E-1,1.348792315E-1,-9.172698021E0,9.174258574E0
1.469475400E1,-8.829368651E-2,1.234590560E-1,-9.171976089E0,9.173231890E0
1.470471600E1,-6.061774865E-2,1.138592958E-1,-9.173982620E0,9.174889404E0
1.471467900E1,-6.484578550E-2,9.645607322E-2,-9.168780327E0,9.169516968E0
1.472464200E1,-5.863317102E-2,7.918219268E-2,-9.171028137E0,9.171557379E0
1.473460400E1,-5.700784549E-2,6.864859164E-2,-9.170058250E0,9.170492399E0
1.474456700E1,-5.882339180E-2,6.600978225E-2,-9.171808243E0,9.172234402E0
1.475452900E1,-6.202504039E-2,5.321117118E-2,-9.172010422E0,9.172374486E0
1.476449200E1,-5.951999873E-2,3.998476639E-2,-9.170404434E0,9.170684756E0
1.477445400E1,-5.890427530E-2,2.468677051E-2,-9.172091484E0,9.172313849E0
1.478441700E1,-4.621927813E-2,1.527456567E-2,-9.171084404E0,9.171213588E0
1.479438000E1,-1.973201334E-2,-1.671186276E-2,-9.169858932E0,9.169895391E0
1.480434200E1,-1.278062817E-2,-4.841770604E-2,-9.169683456E0,9.169820190E0
1.481430500E1,-2.013015375E-2,-7.883659750E-2,-9.166100502E0,9.166461632E0
1.482426700E1,-2.322031185E-2,-1.265244186E-1,-9.167409897E0,9.168312376E0
1.483423000E1,-3.637419641E-2,-1.466272920E-1,-9.164133072E0,9.165378203E0
1.484419200E1,-5.257384852E-2,-1.795624197E-1,-9.165723801E0,9.167633253E0
1.485415500E1,-6.741458178E-2,-2.033324540E-1,-9.161311150E0,9.163815297E0
1.486411800E1,-9.034412354E-2,-2.240741849E-1,-9.158637047E0,9.161823173E0
1.487408000E1,-1.149187088E-1,-2.461752146E-1,-9.159113884E0,9.163142239E0
1.488404300E1,-1.588340700E-1,-2.393383682E-1,-9.152149200E0,9.156655836E0
1.489400500E1,-1.865032464E-1,-2.423104644E-1,-9.151091576E0,9.156198712E0
1.490396800E1,-1.930488646E-1,-2.429782599E-1,-9.149647713E0,9.154909042E0
1.491393000E1,-2.092552632E-1,-2.075257152E-1,-9.148994446E0,9.153739895E0
1.492389300E1,-2.286325097E-1,-1.825196445E-1,-9.146424294E0,9.151101770E0
1.493385600E1,-2.139230669E-1,-1.663675755E-1,-9.145696640E0,9.149710830E0
1.494381800E1,-2.139168382E-1,-1.371932179E-1,-9.144731522E0,9.148261966E0
1.495378100E1,-2.088001072E-1,-1.249112561E-1,-9.140556335E0,9.143794094E0
1.496374300E1,-2.022170573E-1,-9.369131923E-2,-9.141684532E0,9.144400794E0
1.497370537E1,-1.942182481E-1,-8.744408190E-2,-9.137769699E0,9.140251762E0
1.498366737E1,-1.839832813E-1,-7.409663498E-2,-9.137446404E0,9.139598839E0
1.499363038E1,-1.763415933E-1,-5.653548613E-2,-9.137219429E0,9.139095771E0
1.500359237E1,-1.678336859E-1,-5.545813218E-2,-9.134673119E0,9.136383132E0
1.501355537E1,-1.601920128E-1,-2.875088900E-2,-9.137542725E0,9.138992020E0
1.502351838E1,-1.497166604E-1,-1.897148788E-2,-9.134196281E0,9.135442885E0
1.503348037E1,-1.435943097E-1,-7.774759084E-3,-9.133229256E0,9.134361303E0
1.504344337E1,-1.326247305E-1,1.370594092E-2,-9.132278442E0,9.133251706E0
1.505340537E1,-1.239441484E-1,3.163301200E-2,-9.130788803E0,9.131684782E0
1.506336837E1,-1.204879284E-1,5.205586180E-2,-9.129913330E0,9.130856727E0
1.507333038E1,-1.217265576E-1,6.811152399E-2,-9.128563881E0,9.129629514E0
1.508329337E1,-1.133880094E-1,9.552858025E-2,-9.123623848E0,9.124828473E0
1.509325637E1,-9.723594040E-2,1.134055853E-1,-9.126953125E0,9.128175557E0
1.510321838E1,-8.432033658E-2,1.497054547E-1,-9.126676559E0,9.128293743E0
1.511318137E1,-6.694746763E-2,1.683779508E-1,-9.126067162E0,9.127865848E0
1.512314337E1,-5.039823428E-2,1.759271771E-1,-9.125788689E0,9.127623433E0
1.513310637E1,-2.842209674E-2,1.763311774E-1,-9.124410629E0,9.126158547E0
1.514306837E1,-7.775638718E-3,1.689445227E-1,-9.123016357E0,9.124583835E0
1.515303137E1,6.671148003E-4,1.740354151E-1,-9.123890877E0,9.125550586E0
1.516299437E1,-4.899811465E-3,1.582618803E-1,-9.123772621E0,9.125146447E0
1.517295637E1,7.367691724E-4,1.532463580E-1,-9.124739647E0,9.126026442E0
1.518291938E1,6.566974916E-4,1.374759525E-1,-9.125232697E0,9.126268232E0
1.519288137E1,-4.824887030E-3,1.334607154E-1,-9.122008324E0,9.122985854E0
1.520284437E1,-5.062257405E-3,1.267052293E-1,-9.120274544E0,9.121156045E0
1.521280738E1,-1.580440556E-3,1.084026471E-1,-9.121423721E0,9.122067986E0
1.522276937E1,4.700256512E-3,9.594605863E-2,-9.120806694E0,9.121312542E0
1.523273237E1,8.793002926E-3,8.229389042E-2,-9.122012138E0,9.122387574E0
1.524269437E1,1.213624142E-2,6.469228119E-2,-9.122227669E0,9.122465128E0
1.525265737E1,2.193374559E-2,4.186446220E-2,-9.121838570E0,9.121961007E0
1.526261938E1,2.883072384E-2,1.119349431E-2,-9.116298676E0,9.116351137E0
1.527258237E1,3.596905991E-2,-2.078041807E-2,-9.117477417E0,9.117572048E0
1.528254437E1,2.122100815E-2,-5.729475245E-2,-9.116682053E0,9.116886786E0
1.529250738E1,1.822788082E-2,-8.195935190E-2,-9.116824150E0,9.117210767E0
1.530247037E1,9.465019219E-3,-1.188174561E-1,-9.114473343E0,9.115252684E0
1.531243237E1,-3.502976615E-3,-1.430626065E-1,-9.114390373E0,9.115513757E0
1.532239537E1,-2.641442977E-2,-1.644993126E-1,-9.110664368E0,9.112187606E0
1.533235737E1,-5.214216560E-2,-1.833459735E-1,-9.109144211E0,9.111138392E0
1.534232037E1,-5.822870508E-2,-2.033742815E-1,-9.111109734E0,9.113565288E0
1.535228237E1,-6.964967400E-2,-2.173886299E-1,-9.106571198E0,9.109431808E0
1.536224537E1,-8.599333465E-2,-2.162030637E-1,-9.104389191E0,9.107361921E0
1.537220838E1,-9.731549770E-2,-2.202870250E-1,-9.101264954E0,9.104450584E0
1.538217037E1,-1.028674617E-1,-2.300796062E-1,-9.103788376E0,9.107276274E0
1.539213337E1,-1.131821498E-1,-2.239269018E-1,-9.102972031E0,9.106429226E0
1.540209538E1,-1.277528405E-1,-2.252573669E-1,-9.100768089E0,9.104451740E0
1.541205837E1,-1.437893361E-1,-2.122997493E-1,-9.097270012E0,9.100882827E0
1.542202037E1,-1.487348229E-1,-2.040698230E-1,-9.093806267E0,9.097311634E0
1.543198337E1,-1.570870280E-1,-1.929159611E-1,-9.096398354E0,9.099799773E0
1.544194637E1,-1.602223814E-1,-1.708220094E-1,-9.094367027E0,9.097382206E0
1.545190838E1,-1.655457616E-1,-1.487899423E-1,-9.092988014E0,9.095711895E0
1.546187137E1,-1.667106450E-1,-1.262221038E-1,-9.091368675E0,9.093773081E0
1.547183337E1,-1.629329473E-1,-1.062427908E-1,-9.087852478E0,9.089933847E0
1.548179638E1,-1.642960310E-1,-8.111949265E-2,-9.089071274E0,9.090918005E0
1.549175837E1,-1.600035429E-1,-4.991364107E-2,-9.089627266E0,9.091172440E0
1.550172137E1,-1.484531611E-1,-2.311314084E-2,-9.086907387E0,9.088149339E0
1.551168438E1,-1.376662850E-1,9.890083224E-3,-9.087716103E0,9.088764150E0
1.552164637E1,-1.258746237E-1,3.598429263E-2,-9.083581924E0,9.084525297E0
1.553160937E1,-1.148952022E-1,5.234196037E-2,-9.085381508E0,9.086258731E0
1.554157137E1,-8.621338755E-2,5.730354413E-2,-9.083524704E0,9.084114568E0
1.555153437E1,-5.496784300E-2,6.614869833E-2,-9.082692146E0,9.083099347E0
1.556149638E1,-5.994743481E-2,6.474912167E-2,-9.086339951E0,9.086768394E0
1.557145937E1,-5.282028019E-2,7.144377381E-2,-9.084506989E0,9.084941465E0
1.558142237E1,-4.861000180E-2,5.297225714E-2,-9.085655212E0,9.085939667E0
1.559138438E1,-4.193079472E-2,5.496376753E-2,-9.086769104E0,9.087032076E0
1.560134737E1,-4.424473271E-2,6.687833369E-2,-9.084053040E0,9.084406967E0
1.561130937E1,-4.099514335E-2,6.041803956E-2,-9.081894875E0,9.082188363E0
1.562127237E1,-3.492527083E-2,6.617856771E-2,-9.081786156E0,9.082094426E0
1.563123437E1,-2.986552939E-2,6.136916578E-2,-9.079543114E0,9.079799628E0
1.564119737E1,-3.095811233E-2,7.042323053E-2,-9.083254814E0,9.083580564E0
1.565116037E1,-2.961241640E-2,7.418707013E-2,-9.080574036E0,9.080925362E0
1.566112237E1,-2.343388274E-2,7.539215684E-2,-9.082748413E0,9.083091536E0
1.567108538E1,-2.006631531E-2,7.081977278E-2,-9.080957413E0,9.081255730E0
1.568104737E1,-1.840503514E-2,6.465189159E-2,-9.080394745E0,9.080643553E0
1.569101037E1,-1.440070849E-2,5.588130653E-2,-9.082437515E0,9.082620840E0
1.570097237E1,4.392763134E-3,3.996819258E-2,-9.078826904E0,9.078915944E0
1.571093537E1,1.504114643E-2,9.209482931E-3,-9.079815865E0,9.079832993E0
1.572089837E1,1.158321090E-2,-5.622356664E-3,-9.078886032E0,9.078895162E0
1.573086037E1,4.855267238E-3,-3.233466297E-2,-9.076081276E0,9.076140173E0
1.574082337E1,-2.804795746E-3,-5.043656379E-2,-9.074904442E0,9.075045033E0
1.575078538E1,-1.312001701E-2,-8.058248460E-2,-9.074853897E0,9.075221150E0
1.576074837E1,-2.145392448E-2,-1.053625867E-1,-9.072786331E0,9.073423464E0
1.577071037E1,-3.361738101E-2,-1.262199283E-1,-9.072941780E0,9.073881978E0
1.578067338E1,-4.760207981E-2,-1.599199027E-1,-9.070433617E0,9.071968162E0
1.579063637E1,-6.125104800E-2,-1.824832708E-1,-9.068400383E0,9.070443062E0
1.580059837E1,-7.611256093E-2,-2.099813223E-1,-9.067111969E0,9.069862443E0
1.581056137E1,-1.021393687E-1,-2.320421636E-1,-9.065537453E0,9.069081835E0
1.582052337E1,-1.223426238E-1,-2.411345989E-1,-9.059162140E0,9.063196582E0
1.583048637E1,-1.451131999E-1,-2.381236255E-1,-9.061746597E0,9.066036184E0
1.584044837E1,-1.856670082E-1,-2.292567790E-1,-9.058128357E0,9.062931106E0
1.585041137E1,-1.873623729E-1,-2.254676372E-1,-9.058367729E0,9.063110185E0
1.586037438E1,-2.087018490E-1,-2.157013863E-1,-9.056122780E0,9.061095042E0
1.587033637E1,-2.210711688E-1,-2.040681690E-1,-9.051635742E0,9.056634358E0
1.588029937E1,-2.344305664E-1,-1.959414035E-1,-9.051876068E0,9.057031030E0
1.589026137E1,-2.427257746E-1,-1.827534437E-1,-9.051158905E0,9.056257072E0
1.590022437E1,-2.729738653E-1,-1.653864384E-1,-9.048770905E0,9.054397953E0
1.591018637E1,-2.898263633E-1,-1.245410219E-1,-9.048153877E0,9.053651107E0
1.592014937E1,-2.855951190E-1,-9.597865492E-2,-9.042749405E0,9.047767309E0
1.593011237E1,-2.834853530E-1,-6.029389054E-2,-9.041352272E0,9.045996363E0
1.594007438E1,-2.811700106E-1,-1.949841529E-2,-9.040521622E0,9.044913927E0
1.595003737E1,-2.734593451E-1,7.229601964E-3,-9.039161682E0,9.043300072E0
1.595999937E1,-2.670090199E-1,4.495225102E-2,-9.042605400E0,9.046658330E0
1.596996238E1,-2.563720942E-1,7.434395701E-2,-9.038745880E0,9.042686590E0
1.597992437E1,-2.436143011E-1,1.050208807E-1,-9.039731979E0,9.043623808E0
1.598988737E1,-2.243527323E-1,1.359415203E-1,-9.041906357E0,9.045710852E0
1.599985037E1,-2.102141678E-1,1.607197076E-1,-9.040145874E0,9.044017815E0
1.600981237E1,-1.851530224E-1,1.994572431E-1,-9.039628029E0,9.043723776E0
1.601977537E1,-1.630509198E-1,2.178366333E-1,-9.039205551E0,9.043300028E0
1.602973737E1,-1.365106553E-1,2.420716733E-1,-9.040244102E0,9.044514762E0
1.603970037E1,-1.089646071E-1,2.597350478E-1,-9.041407585E0,9.045793868E0
1.604966238E1,-6.716495752E-2,2.600018978E-1,-9.040522575E0,9.044509968E0
1.605962537E1,-2.680724114E-2,2.543162405E-1,-9.039825439E0,9.043441787E0
1.606958837E1,-1.642464101E-2,2.590614557E-1,-9.040807724E0,9.044533537E0
1.607955037E1,1.549387723E-2,2.431424260E-1,-9.044543266E0,9.047824114E0
1.608951337E1,3.142810240E-2,2.415988445E-1,-9.042562485E0,9.045844019E0
