"Time (s)","Gyroscope x (rad/s)","Gyroscope y (rad/s)","Gyroscope z (rad/s)","Absolute (rad/s)"
0.000000000E0,1.124509610E-2,-1.227181591E-2,-4.121487588E-2,4.444902300E-2
9.961000062E-3,1.034521312E-2,-2.381475456E-2,-3.734450042E-2,4.548381779E-2
1.992300001E-2,8.529972285E-3,-3.619041666E-2,-3.281180561E-2,4.958952785E-2
2.988499997E-2,6.762965117E-3,-5.380616337E-2,-2.223799378E-2,5.861202335E-2
3.984600003E-2,6.653680000E-3,-6.755475700E-2,-7.885948755E-3,6.833816531E-2
4.980799998E-2,9.922177531E-3,-7.431972027E-2,1.180945896E-2,7.590345018E-2
5.976900004E-2,5.426138639E-3,-7.461881638E-2,2.251723222E-2,7.813089328E-2
6.973100000E-2,-5.909074098E-3,-6.762881577E-2,2.417664789E-2,7.206305699E-2
7.969300007E-2,-1.842458732E-2,-5.377332866E-2,1.601778902E-2,5.905595532E-2
8.965400001E-2,-2.736668289E-2,-2.588444203E-2,3.866311163E-4,3.767079977E-2
9.961599996E-2,-2.738405578E-2,2.964200918E-3,-1.286446303E-2,3.040012183E-2
1.095770000E-1,-1.479689125E-2,3.196522593E-2,-2.151547559E-2,4.127516626E-2
1.195390000E-1,-2.285626717E-3,4.540939257E-2,-3.021602333E-2,5.459162104E-2
1.295010000E-1,1.138943899E-2,5.431633443E-2,-3.491437063E-2,6.556673533E-2
1.394620000E-1,2.363278903E-2,4.493135586E-2,-3.960872442E-2,6.439088838E-2
1.494240001E-1,2.758004889E-2,2.908477560E-2,-4.225270823E-2,5.823980272E-2
1.593850000E-1,2.748387307E-2,6.134960800E-3,-3.675674275E-2,4.630398644E-2
1.693470000E-1,1.892447472E-2,-2.008918673E-2,-3.146823868E-2,4.185643573E-2
1.793090000E-1,8.612106554E-3,-4.241029918E-2,-2.488490567E-2,4.992054072E-2
1.892700000E-1,-6.557791494E-3,-6.218320876E-2,-2.344200574E-2,6.677786845E-2
1.992320000E-1,-2.559185401E-2,-6.438542157E-2,-2.426971123E-2,7.341283529E-2
2.091930000E-1,-3.746475652E-2,-5.893553048E-2,-3.048526496E-2,7.619944956E-2
2.191550001E-1,-3.193364665E-2,-5.018849671E-2,-3.671519458E-2,6.990456711E-2
2.291160000E-1,-2.810535207E-2,-3.975716233E-2,-4.268573970E-2,6.475040653E-2
2.390780000E-1,-1.210365258E-2,-2.654907107E-2,-4.215630144E-2,5.126895095E-2
2.490400000E-1,3.326969221E-3,-1.801550388E-2,-4.309640080E-2,4.682869704E-2
2.590010000E-1,1.208293252E-2,-1.395827532E-2,-3.875411302E-2,4.292682127E-2
2.689630000E-1,1.528751384E-2,-1.605072059E-2,-3.004264645E-2,3.733489409E-2
2.789240000E-1,1.178088412E-2,-1.424003765E-2,-2.355971560E-2,2.994374896E-2
2.888860001E-1,1.066454104E-3,-1.658335142E-2,-1.714921929E-2,2.387971086E-2
2.988480000E-1,-1.049545873E-2,-1.556435414E-2,-1.929492690E-2,2.692021504E-2
3.088090000E-1,-2.314920165E-2,-1.551215723E-2,-2.006910741E-2,3.434067022E-2
3.187710000E-1,-2.933545969E-2,-1.205244381E-2,-2.097697929E-2,3.802452179E-2
3.287320000E-1,-2.932826802E-2,-6.365796551E-3,-1.836122386E-2,3.518245603E-2
3.386940000E-1,-2.120071277E-2,2.300444525E-3,-9.458011016E-3,2.332844271E-2
3.486560000E-1,-1.293798815E-2,8.609206416E-3,-7.641222328E-4,1.555936552E-2
3.586170000E-1,-4.774883855E-4,5.197504070E-3,8.574519306E-3,1.003814849E-2
3.685790000E-1,1.012816560E-3,4.397667944E-4,1.768093184E-2,1.771537589E-2
3.785400001E-1,-1.332903048E-4,-4.515311681E-3,2.394521609E-2,2.436758460E-2
3.885020000E-1,-7.750995923E-3,-6.722006015E-3,3.112269938E-2,3.277019560E-2
3.984640000E-1,-2.093976550E-2,-7.602398284E-3,3.651001677E-2,4.276975056E-2
4.084250000E-1,-2.571534552E-2,-6.951522082E-3,3.698911890E-2,4.558286489E-2
4.183870000E-1,-2.908413298E-2,-1.024113130E-2,3.561891988E-2,4.711130454E-2
4.283480000E-1,-3.674018756E-2,-5.472474732E-3,4.044749960E-2,5.491620513E-2
4.383100000E-1,-4.511589557E-2,-7.510374300E-3,5.264983326E-2,6.974134138E-2
4.482720000E-1,-5.921440572E-2,-3.591266694E-3,7.253086567E-2,9.370149153E-2
4.582330000E-1,-6.975647062E-2,-1.025681943E-2,8.487488329E-2,1.103399898E-1
4.681950000E-1,-6.609915197E-2,-2.253186144E-2,9.722023457E-2,1.197019494E-1
4.781560000E-1,-5.335284770E-2,-3.919412196E-2,1.037572250E-1,1.230782974E-1
4.881180000E-1,-4.540437460E-2,-5.103426799E-2,1.121725440E-1,1.313344333E-1
4.980790000E-1,-4.626313224E-2,-4.711056128E-2,1.243032515E-1,1.407514857E-1
5.080410000E-1,-4.787088186E-2,-4.074161127E-2,1.269938350E-1,1.417001565E-1
5.180030001E-1,-4.787397757E-2,-3.618908674E-2,1.328900754E-1,1.458126876E-1
5.279640000E-1,-5.482961982E-2,-3.699815646E-2,1.335508078E-1,1.490334495E-1
5.379260000E-1,-6.218487769E-2,-2.539611608E-2,1.353713572E-1,1.511202372E-1
5.478870000E-1,-5.419619009E-2,-2.505523153E-2,1.378158629E-1,1.501938871E-1
5.578490000E-1,-3.418386728E-2,-1.473814435E-2,1.352459192E-1,1.402754731E-1
5.678110000E-1,-1.936098002E-2,-6.232008338E-3,1.308122873E-1,1.323840625E-1
5.777720000E-1,-1.030583028E-2,1.354891062E-2,1.371239722E-1,1.381765786E-1
5.877340001E-1,-1.515731029E-2,3.343553096E-2,1.419205964E-1,1.465917271E-1
5.976950000E-1,-2.164675854E-2,5.507073551E-2,1.442649662E-1,1.559286649E-1
6.076570000E-1,-3.416681290E-2,6.381895393E-2,1.536717862E-1,1.698683250E-1
6.176190000E-1,-3.563403338E-2,7.249125093E-2,1.534190476E-1,1.733844571E-1
6.275800000E-1,-3.455545381E-2,7.307208329E-2,1.492402852E-1,1.697241039E-1
6.375420000E-1,-3.309398517E-2,8.390059322E-2,1.477648914E-1,1.731155236E-1
6.475030000E-1,-2.742598020E-2,8.013887703E-2,1.380337179E-1,1.619497801E-1
6.574650001E-1,-1.972411014E-2,7.635012269E-2,1.351622939E-1,1.564839527E-1
6.674270000E-1,-1.430484466E-2,7.527180761E-2,1.332275122E-1,1.536881375E-1
6.773880000E-1,-8.486248553E-3,6.776280701E-2,1.279328614E-1,1.450194176E-1
6.873500000E-1,-3.294149414E-3,6.127081811E-2,1.274114251E-1,1.414165331E-1
6.973110000E-1,-1.294857007E-3,5.045553297E-2,1.311124265E-1,1.404916576E-1
7.072730000E-1,-3.789960174E-4,3.776636720E-2,1.273685396E-1,1.328502428E-1
7.172350000E-1,8.165416075E-4,3.060272895E-2,1.290226430E-1,1.326048120E-1
7.271960001E-1,-6.105546374E-3,2.440368943E-2,1.293733865E-1,1.317963994E-1
7.371580000E-1,-4.067219328E-3,1.837196760E-2,1.306341141E-1,1.319823596E-1
7.471190001E-1,-9.633051232E-4,1.565581001E-2,1.312184036E-1,1.321525701E-1
7.570810000E-1,3.434983548E-3,1.657130755E-2,1.330157816E-1,1.340880513E-1
7.670420000E-1,8.889404126E-3,2.268352918E-2,1.405099183E-1,1.426064555E-1
7.770040000E-1,1.164039224E-2,3.121496551E-2,1.512640268E-1,1.548892462E-1
7.869660000E-1,1.499704085E-2,4.310038686E-2,1.570446789E-1,1.635407771E-1
7.969270000E-1,1.840581000E-2,5.466739088E-2,1.662056893E-1,1.759307495E-1
8.068890000E-1,2.071423829E-2,6.820716709E-2,1.685964018E-1,1.830465624E-1
8.168500001E-1,5.776533112E-2,3.641478717E-2,1.253906190E-1,1.427784212E-1
8.268120000E-1,3.609359264E-2,-2.161333114E-1,1.067823097E-1,2.437597534E-1
8.367740000E-1,5.201755837E-2,-9.971644729E-2,1.401336044E-1,1.796847888E-1
8.467350000E-1,8.401905186E-3,-1.563847810E-1,1.692315787E-1,2.305777938E-1
8.566970000E-1,3.705195151E-3,5.123019218E-4,2.176390588E-1,2.176711989E-1
8.666580000E-1,-2.069282159E-2,3.799842671E-2,2.582194805E-1,2.618193526E-1
8.766200000E-1,-4.251214489E-2,3.630077839E-2,2.912078202E-1,2.965249121E-1
8.865812500E-1,-6.111245975E-2,-2.161178738E-2,3.165715039E-1,3.231397827E-1
8.965422501E-1,-7.211066782E-2,-1.130881757E-1,3.250201046E-1,3.516062461E-1
9.065042500E-1,-6.568792462E-2,-2.336433530E-1,3.121618330E-1,3.954100781E-1
9.164652500E-1,-6.484793872E-2,-2.670404315E-1,3.151560426E-1,4.181377505E-1
9.264272500E-1,-7.566436380E-2,-2.722721994E-1,3.147690892E-1,4.230092505E-1
9.363892500E-1,-7.428122312E-2,-2.423642278E-1,3.103468716E-1,4.007159839E-1
9.463502500E-1,-6.146395952E-2,-1.800806224E-1,2.955471575E-1,3.515038708E-1
9.563122500E-1,-3.682719544E-2,-1.040638611E-1,2.703360915E-1,2.920053628E-1
9.662732501E-1,-5.403760821E-3,-2.831929736E-2,2.444746792E-1,2.461687470E-1
9.762352500E-1,3.222555295E-2,3.082909808E-2,2.159804404E-1,2.205367774E-1
9.861972500E-1,7.636930794E-2,1.284073293E-1,1.868419945E-1,2.392292715E-1
9.961582500E-1,9.857933223E-2,2.867925465E-1,1.829314083E-1,3.541634504E-1
1.006120250E0,1.160355508E-1,3.673185408E-1,1.943723559E-1,4.314716355E-1
1.016081250E0,1.333263814E-1,3.357401490E-1,2.030957937E-1,4.144216127E-1
1.026043250E0,1.461284608E-1,3.084414303E-1,2.015687525E-1,3.963831543E-1
1.036005250E0,1.674337983E-1,3.068501651E-1,1.851314455E-1,3.955562574E-1
1.045966250E0,1.869097650E-1,2.779839039E-1,1.527439505E-1,3.681589677E-1
1.055928250E0,2.016567290E-1,2.327137291E-1,1.151025593E-1,3.287395858E-1
1.065889250E0,1.937458068E-1,1.688074470E-1,8.264714479E-2,2.699332183E-1
1.075851250E0,1.616481990E-1,1.161955893E-1,5.389726162E-2,2.062437151E-1
1.085812250E0,1.085583493E-1,6.795215607E-2,3.020551242E-2,1.315856516E-1
1.095774250E0,4.198000208E-2,2.560412139E-2,4.383770749E-3,4.936708470E-2
1.105736250E0,-1.751714945E-2,2.012928016E-4,-2.118310891E-2,2.748845479E-2
1.115697250E0,-6.924933940E-2,-1.666254550E-2,-5.387794226E-2,8.930814125E-2
1.125659250E0,-1.032499224E-1,-4.088426381E-2,-7.400265336E-2,1.334483503E-1
1.135620250E0,-1.217947081E-1,-6.680909544E-2,-8.924525231E-2,1.651124502E-1
1.145582250E0,-1.235148460E-1,-8.946593851E-2,-8.742045611E-2,1.757908060E-1
1.155544250E0,-1.000076085E-1,-1.159844100E-1,-8.358337730E-2,1.744708746E-1
1.165505250E0,-6.222401559E-2,-1.457889080E-1,-7.346682250E-2,1.747100679E-1
1.175467250E0,-2.985943342E-3,-1.600014716E-1,-6.945370138E-2,1.744511491E-1
1.185428250E0,6.784561276E-2,-1.678471565E-1,-7.608763874E-2,1.963797950E-1
1.195390250E0,1.414460838E-1,-1.762681603E-1,-8.462546766E-2,2.413274306E-1
1.205352250E0,2.032889575E-1,-1.719309390E-1,-9.612420201E-2,2.830662647E-1
1.215313250E0,2.394865602E-1,-1.445642412E-1,-1.070410311E-1,2.995169690E-1
1.225275250E0,2.591252327E-1,-1.123341396E-1,-1.165075004E-1,3.055140632E-1
1.235236250E0,2.612974048E-1,-9.015446156E-2,-1.395560801E-1,3.096450551E-1
1.245198250E0,2.505345047E-1,-6.636258215E-2,-1.685083807E-1,3.091384879E-1
1.255160250E0,2.224014103E-1,-5.806218088E-2,-2.017571479E-1,3.058423628E-1
1.265121250E0,1.835922301E-1,-6.758219004E-2,-2.239138484E-1,2.973396557E-1
1.275083250E0,1.310898215E-1,-7.590807229E-2,-2.398821712E-1,2.837076537E-1
1.285044250E0,8.780919015E-2,-9.784852713E-2,-2.648373246E-1,2.956748157E-1
1.295006250E0,5.228669941E-2,-1.273153871E-1,-2.878640592E-1,3.190749494E-1
1.304968250E0,2.627347410E-2,-1.627921611E-1,-3.115134537E-1,3.524659062E-1
1.314929250E0,6.894741673E-4,-1.964253783E-1,-3.263350427E-1,3.808910142E-1
1.324891250E0,-2.877334319E-2,-2.328217328E-1,-3.172925413E-1,3.945990639E-1
1.334852250E0,-5.800009891E-2,-2.458660305E-1,-2.903333604E-1,3.848474718E-1
1.344814250E0,-8.023163676E-2,-2.411972433E-1,-2.443666607E-1,3.526021704E-1
1.354776250E0,-8.172989637E-2,-1.994372457E-1,-2.009472847E-1,2.946774545E-1
1.364737250E0,-6.230133772E-2,-1.372737437E-1,-1.586243212E-1,2.188314710E-1
1.374699250E0,-2.185549028E-2,-8.660437167E-2,-1.215288937E-1,1.508219203E-1
1.384660250E0,3.304637596E-2,-5.007405952E-2,-9.665469825E-2,1.137611757E-1
1.394622250E0,9.779394418E-2,-2.700735256E-2,-7.627592981E-2,1.269293901E-1
1.404584250E0,1.633159667E-1,-4.540126771E-3,-6.590211391E-2,1.761698225E-1
1.414545250E0,2.191208154E-1,1.494474616E-2,-6.189724803E-2,2.281853336E-1
1.424507250E0,2.550918460E-1,3.557412326E-2,-5.817335099E-2,2.640483041E-1
1.434468250E0,2.675137818E-1,5.660799146E-2,-5.569208413E-2,2.790514225E-1
1.444430250E0,2.484327704E-1,7.810954750E-2,-4.457551986E-2,2.642099918E-1
1.454392250E0,2.016779035E-1,1.026041433E-1,-3.346534073E-2,2.287389692E-1
1.464353250E0,1.334067136E-1,1.244689599E-1,-2.228139713E-2,1.838105924E-1
1.474315250E0,6.228741631E-2,1.498590857E-1,-1.855430380E-2,1.633454315E-1
1.484276250E0,-1.147469226E-2,1.714408100E-1,-2.483723313E-2,1.736102187E-1
1.494238250E0,-7.482052594E-2,1.796957403E-1,-3.595326841E-2,1.979426879E-1
1.504200250E0,-1.279846877E-1,1.734801829E-1,-4.844216257E-2,2.209572295E-1
1.514161250E0,-1.601809710E-1,1.462553591E-1,-5.476077646E-2,2.237125749E-1
1.524123250E0,-1.776550412E-1,1.016908213E-1,-5.717359856E-2,2.125350728E-1
1.534084250E0,-1.739694774E-1,5.355723947E-2,-5.916138738E-2,1.913996519E-1
1.544046250E0,-1.588810831E-1,8.742631413E-3,-5.519726872E-2,1.684231892E-1
1.554007250E0,-1.364225298E-1,-1.982282102E-2,-4.502905905E-2,1.450229880E-1
1.563969250E0,-1.089424342E-1,-2.775424905E-2,-2.900481969E-2,1.161035395E-1
1.573931250E0,-8.089876920E-2,-2.096352540E-2,-4.342610948E-3,8.368356186E-2
1.583892250E0,-5.684803054E-2,-7.667427883E-3,2.972028591E-2,6.460482506E-2
1.593854250E0,-4.104264081E-2,1.555347163E-2,6.519705057E-2,7.859430162E-2
1.603815250E0,-3.240467608E-2,4.448525235E-2,1.007316113E-1,1.147861412E-1
1.613777250E0,-3.062514029E-2,5.988036096E-2,1.336850375E-1,1.496504130E-1
1.623739250E0,-3.101848625E-2,6.407590210E-2,1.601568609E-1,1.752657634E-1
1.633700250E0,-3.206184879E-2,4.975134134E-2,1.808136553E-1,1.902543982E-1
1.643662250E0,-3.543980420E-2,2.616265789E-2,1.915248930E-1,1.965254412E-1
1.653623250E0,-4.328031093E-2,-9.195234627E-3,1.978967786E-1,2.027828213E-1
1.663585250E0,-5.116699636E-2,-3.718611971E-2,1.995178461E-1,2.093041804E-1
1.673547250E0,-7.160332054E-2,-6.237556040E-2,2.082993537E-1,2.289243692E-1
1.683508250E0,-9.211951494E-2,-8.487101644E-2,2.168502212E-1,2.504258630E-1
1.693470250E0,-1.096253246E-1,-1.079504341E-1,2.242146581E-1,2.719250282E-1
1.703431250E0,-1.294757128E-1,-1.196760610E-1,2.348960489E-1,2.937047387E-1
1.713393250E0,-1.468835920E-1,-1.220002994E-1,2.436176538E-1,3.095293587E-1
1.723355250E0,-1.587879360E-1,-1.208077371E-1,2.526891828E-1,3.219626392E-1
1.733316250E0,-1.644695699E-1,-1.128738672E-1,2.611689568E-1,3.286334939E-1
1.743278250E0,-1.596207619E-1,-1.062508523E-1,2.692655027E-1,3.305630684E-1
1.753239250E0,-1.482411176E-1,-9.009199589E-2,2.712069452E-1,3.219397518E-1
1.763201250E0,-1.302642524E-1,-7.614635676E-2,2.735283971E-1,3.123857025E-1
1.773163250E0,-1.101428941E-1,-7.319942117E-2,2.786949277E-1,3.084809153E-1
1.783124250E0,-8.892096579E-2,-6.176353991E-2,2.834766507E-1,3.034479931E-1
1.793086250E0,-7.560931146E-2,-4.902491719E-2,2.837834656E-1,2.977469829E-1
1.803047250E0,-6.092810631E-2,-3.211331367E-2,2.873414457E-1,2.954802962E-1
1.813009250E0,-5.374549702E-2,-1.429782808E-2,2.903103232E-1,2.955893945E-1
1.822971250E0,-4.607372731E-2,3.926715348E-3,2.815980613E-1,2.853693669E-1
1.832932250E0,-3.633036464E-2,2.411255613E-2,2.635722160E-1,2.671546815E-1
1.842894250E0,-3.467201442E-2,3.440727293E-2,2.419896573E-1,2.468704179E-1
1.852855250E0,-3.669443727E-2,3.785962239E-2,2.149527371E-1,2.213244494E-1
1.862817250E0,-5.421643704E-2,3.616026044E-2,1.953103244E-1,2.058958701E-1
1.872779250E0,-7.506220043E-2,3.244178742E-2,1.812714636E-1,1.988621307E-1
1.882740250E0,-1.091115102E-1,2.603555284E-2,1.762668490E-1,2.089334194E-1
1.892702167E0,-1.436748207E-1,2.234562114E-2,1.797566414E-1,2.312017106E-1
1.902663167E0,-1.762005389E-1,1.493830513E-2,1.878611743E-1,2.579953559E-1
1.912625167E0,-1.959622800E-1,1.254247781E-2,2.035701126E-1,2.828415098E-1
1.922587167E0,-1.996155977E-1,7.913904265E-3,2.135167420E-1,2.924011215E-1
1.932548167E0,-1.853924841E-1,1.092431694E-2,2.204747796E-1,2.882686981E-1
1.942510167E0,-1.572391391E-1,1.429401431E-2,2.259707451E-1,2.756650927E-1
1.952471167E0,-1.207413673E-1,2.914765105E-2,2.325498164E-1,2.636427136E-1
1.962433167E0,-7.963334769E-2,4.991178215E-2,2.438448220E-1,2.613292048E-1
1.972395167E0,-3.924335912E-2,7.179531455E-2,2.543653846E-1,2.672009680E-1
1.982356167E0,-3.441629233E-4,8.164661378E-2,2.618315518E-1,2.742663842E-1
1.992318167E0,2.880356647E-2,9.550146759E-2,2.648723423E-1,2.830327428E-1
2.002279167E0,5.017437041E-2,1.000035405E-1,2.622579336E-1,2.851269880E-1
2.012241167E0,6.109057367E-2,9.625799954E-2,2.549526095E-1,2.792821043E-1
2.022203167E0,5.100598186E-2,9.390829504E-2,2.466781586E-1,2.688317169E-1
2.032164167E0,3.160350397E-2,9.585200995E-2,2.332057506E-1,2.541088573E-1
2.042126167E0,2.168117790E-3,9.593164176E-2,2.180584967E-1,2.382374627E-1
2.052087167E0,-2.850624919E-2,9.300545603E-2,1.981012970E-1,2.206960466E-1
2.062049167E0,-6.402429193E-2,8.159168065E-2,1.743634790E-1,2.028766500E-1
2.072011167E0,-8.760268986E-2,7.368451357E-2,1.445017159E-1,1.843485414E-1
2.081972167E0,-1.125844717E-1,7.077448070E-2,1.202565730E-1,1.792928714E-1
2.091934167E0,-1.259867251E-1,5.921687186E-2,9.721091390E-2,1.697917978E-1
2.101895167E0,-1.256794035E-1,5.621495098E-2,7.001950592E-2,1.544608831E-1
2.111857167E0,-1.153944284E-1,5.773128197E-2,4.534371942E-2,1.367655948E-1
2.121819167E0,-8.769862354E-2,7.389640808E-2,2.622621693E-2,1.176415834E-1
2.131780167E0,-5.856335536E-2,9.836424887E-2,9.018734097E-3,1.148326156E-1
2.141742167E0,-1.669180766E-2,1.251292825E-1,-1.500217896E-2,1.271259971E-1
2.151703167E0,2.612548135E-2,1.631075591E-1,-4.627594352E-2,1.715461441E-1
2.161665167E0,6.241051480E-2,1.862653494E-1,-7.423806936E-2,2.100027230E-1
2.171627167E0,8.864938468E-2,1.960075796E-1,-9.763794392E-2,2.362432068E-1
2.181588167E0,9.046246856E-2,1.704793125E-1,-1.171237603E-1,2.257534705E-1
2.191550167E0,7.292907685E-2,1.151814759E-1,-1.230828464E-1,1.836703833E-1
2.201511167E0,3.661527857E-2,4.530093074E-2,-1.149506122E-1,1.288661949E-1
2.211473167E0,-2.460956573E-3,-1.786067709E-2,-1.058316827E-1,1.073564397E-1
2.221435167E0,-4.509044066E-2,-7.317480445E-2,-8.703349531E-2,1.223214174E-1
2.231396167E0,-8.132417500E-2,-1.190811098E-1,-6.654127687E-2,1.588133296E-1
2.241358167E0,-1.006038636E-1,-1.410878748E-1,-4.839555919E-2,1.799140237E-1
2.251319167E0,-9.688891470E-2,-1.300422251E-1,-3.579907119E-2,1.660723204E-1
2.261281167E0,-6.648173928E-2,-8.610379696E-2,-2.869429253E-2,1.125035463E-1
2.271243167E0,-1.124647353E-2,-2.394989878E-2,-2.764474042E-2,3.826633626E-2
2.281204167E0,5.556904152E-2,4.472690076E-2,-3.639828414E-2,8.008276416E-2
2.291166167E0,1.315340847E-1,8.807940781E-2,-6.430661678E-2,1.708640936E-1
2.301127167E0,2.016623020E-1,1.188133508E-1,-8.818292618E-2,2.501210204E-1
2.311089167E0,2.482381016E-1,1.217787117E-1,-1.220676452E-1,3.022461244E-1
2.321051167E0,2.729477286E-1,1.000028402E-1,-1.524822712E-1,3.282558052E-1
2.331012167E0,2.641364038E-1,7.173764706E-2,-1.841781586E-1,3.299029008E-1
2.340974167E0,2.388640344E-1,4.228175431E-2,-2.153118402E-1,3.243500612E-1
2.350935167E0,1.919998825E-1,1.416901592E-2,-2.474844307E-1,3.135494527E-1
2.360897167E0,1.363126487E-1,3.418831620E-4,-2.838879824E-1,3.149184682E-1
2.370859167E0,7.099020481E-2,1.233576797E-2,-3.050800860E-1,3.134735064E-1
2.380820167E0,6.750259781E-4,1.191125996E-2,-3.248279393E-1,3.250469565E-1
2.390782167E0,-5.341909081E-2,6.071601529E-3,-3.337804377E-1,3.380825997E-1
2.400743167E0,-1.043147594E-1,-9.545440786E-3,-3.322760165E-1,3.483963771E-1
2.410705167E0,-1.238562465E-1,-3.467701748E-2,-3.220753074E-1,3.468073946E-1
2.420667167E0,-1.216141358E-1,-6.400693953E-2,-3.057298958E-1,3.351979349E-1
2.430628167E0,-9.236243367E-2,-9.889679402E-2,-2.935677767E-1,3.232544424E-1
2.440590167E0,-4.404016957E-2,-1.280368268E-1,-2.817103267E-1,3.125598722E-1
2.450551167E0,1.993729919E-2,-1.447707415E-1,-2.630146444E-1,3.008866342E-1
2.460513167E0,8.743777871E-2,-1.492349952E-1,-2.412310690E-1,2.968313959E-1
2.470475167E0,1.446374208E-1,-1.492412239E-1,-2.098744661E-1,2.953645509E-1
2.480436167E0,2.013742030E-1,-1.541438252E-1,-1.833967865E-1,3.129636876E-1
2.490398167E0,2.386483401E-1,-1.535880268E-1,-1.573803574E-1,3.245163926E-1
2.500359167E0,2.535516620E-1,-1.498904973E-1,-1.261497438E-1,3.204206054E-1
2.510321167E0,2.399423718E-1,-1.496345699E-1,-9.867017716E-2,2.994973292E-1
2.520283167E0,2.081956267E-1,-1.595172882E-1,-6.706458330E-2,2.707191212E-1
2.530244167E0,1.708122790E-1,-1.696511656E-1,-5.135193467E-2,2.461612761E-1
2.540206167E0,1.230956241E-1,-1.773551553E-1,-4.085801542E-2,2.197197334E-1
2.550167167E0,7.642855495E-2,-1.796717644E-1,-3.928674757E-2,1.991650458E-1
2.560129167E0,3.359640017E-2,-1.710894704E-1,-4.765945673E-2,1.807532816E-1
2.570091167E0,2.831520978E-3,-1.448892653E-1,-6.510183960E-2,1.588683928E-1
2.580052167E0,-1.183530595E-2,-1.089645624E-1,-8.621165156E-2,1.394481954E-1
2.590014167E0,-1.829968393E-2,-6.942819059E-2,-1.068522036E-1,1.287343990E-1
2.599975167E0,-1.661656611E-2,-3.700313717E-2,-1.245001778E-1,1.309413483E-1
2.609937167E0,-2.693788148E-3,-1.799599081E-2,-1.395076364E-1,1.406893486E-1
2.619899167E0,1.575845666E-2,-3.092408646E-3,-1.542509049E-1,1.550846015E-1
2.629860167E0,3.520720080E-2,-5.286925472E-3,-1.603907943E-1,1.642945692E-1
2.639822167E0,5.535854027E-2,-2.960388083E-3,-1.581252515E-1,1.675617112E-1
2.649783167E0,7.147008926E-2,-3.487839596E-3,-1.542058736E-1,1.699987945E-1
2.659745167E0,8.334485441E-2,3.863550257E-3,-1.457298249E-1,1.679240115E-1
2.669707167E0,9.048399329E-2,2.251872793E-2,-1.374143809E-1,1.660637174E-1
2.679668167E0,9.320334345E-2,4.781262949E-2,-1.335272342E-1,1.697127958E-1
2.689630167E0,8.867011219E-2,6.674397737E-2,-1.297727078E-1,1.707574391E-1
2.699591167E0,7.601162046E-2,7.586874068E-2,-1.250626445E-1,1.648468905E-1
2.709553167E0,6.160520762E-2,7.270839065E-2,-1.138778999E-1,1.484920462E-1
2.719515167E0,4.346455261E-2,6.079314277E-2,-1.112834439E-1,1.340484182E-1
2.729476167E0,2.281638235E-2,4.302477837E-2,-9.949548542E-2,1.107748639E-1
2.739438167E0,6.233145017E-3,2.196689695E-2,-9.318380058E-2,9.594069704E-2
2.749399167E0,-9.232943878E-3,-4.229529761E-3,-7.984483242E-2,8.048809501E-2
2.759361167E0,-2.235753462E-2,-2.350602299E-2,-6.728136539E-2,7.469387258E-2
2.769323167E0,-3.099777736E-2,-4.178693146E-2,-5.862822384E-2,7.838544809E-2
2.779284167E0,-3.184679151E-2,-4.567088187E-2,-4.921688139E-2,7.431250900E-2
2.789246167E0,-3.273820132E-2,-3.899128735E-2,-3.762679920E-2,6.330786944E-2
2.799207167E0,-3.060500883E-2,-2.622356080E-2,-1.975139603E-2,4.488272887E-2
2.809169167E0,-2.940688469E-2,-1.353735104E-2,3.029283136E-3,3.251463204E-2
2.819131167E0,-2.264778130E-2,-8.994796313E-3,2.911042050E-2,3.796373190E-2
2.829092167E0,-1.563803293E-2,-6.351100281E-3,5.149428174E-2,5.418990312E-2
2.839054167E0,-4.685517401E-3,-1.057833619E-2,7.234150171E-2,7.326082268E-2
2.849015167E0,4.525242373E-3,-1.942743920E-2,9.689477086E-2,9.892673972E-2
2.858977167E0,1.541890390E-2,-2.286025509E-2,1.269818246E-1,1.299412084E-1
2.868939167E0,2.272280306E-2,-2.022830024E-2,1.480652988E-1,1.511583362E-1
2.878900167E0,2.842463180E-2,-1.361540519E-2,1.661100835E-1,1.690736490E-1
2.888862542E0,3.126719594E-2,-7.136539556E-3,1.784133613E-1,1.812729854E-1
2.898823542E0,3.369972855E-2,6.564092822E-3,1.883759797E-1,1.914791600E-1
2.908785542E0,3.366839886E-2,2.202616446E-2,1.886148602E-1,1.928581823E-1
2.918747542E0,3.062653542E-2,4.479219392E-2,1.807390898E-1,1.887086217E-1
2.928708542E0,2.698740549E-2,7.391189784E-2,1.678738892E-1,1.853993834E-1
2.938670542E0,1.967143454E-2,9.033294767E-2,1.478839368E-1,1.744037429E-1
2.948631542E0,1.118154451E-2,9.283259511E-2,1.212730929E-1,1.531341919E-1
2.958593542E0,3.396592103E-3,9.573516995E-2,9.556747228E-2,1.353140841E-1
2.968555542E0,-9.738342836E-3,9.528768808E-2,7.107304782E-2,1.192726161E-1
2.978516542E0,-3.079009987E-2,9.689703584E-2,4.993287474E-2,1.132711693E-1
2.988478542E0,-5.457088724E-2,9.808500111E-2,3.871430829E-2,1.187326697E-1
2.998439542E0,-7.473075390E-2,1.053253338E-1,2.829468995E-2,1.322070384E-1
3.008401542E0,-9.500893205E-2,1.104072779E-1,1.713630930E-2,1.466632786E-1
3.018363542E0,-1.100896150E-1,1.198769435E-1,1.223210059E-2,1.632171229E-1
3.028324542E0,-1.153660864E-1,1.270330101E-1,1.495731249E-2,1.722510979E-1
3.038286542E0,-1.218386367E-1,1.383138895E-1,1.857308671E-2,1.852575099E-1
3.048247542E0,-1.124492884E-1,1.439389437E-1,2.931814268E-2,1.849940958E-1
3.058209542E0,-1.001864970E-1,1.459911764E-1,4.437219352E-2,1.825367067E-1
3.068171542E0,-7.803490758E-2,1.440399289E-1,5.749597400E-2,1.736166321E-1
3.078132542E0,-4.698485136E-2,1.294218302E-1,7.182431221E-2,1.552942955E-1
3.088094542E0,-1.580304094E-2,1.172352135E-1,7.903829217E-2,1.422704573E-1
3.098055542E0,1.159662381E-2,9.681089967E-2,8.478565514E-2,1.292108327E-1
3.108017542E0,3.112598695E-2,7.393003255E-2,8.632311225E-2,1.178395370E-1
3.117979542E0,3.483523428E-2,5.346097797E-2,9.157672524E-2,1.116148123E-1
3.127940542E0,3.080397658E-2,3.864530474E-2,9.979817271E-2,1.113643562E-1
3.137902542E0,1.398771349E-2,3.428837284E-2,1.084968597E-1,1.146425628E-1
3.147863542E0,-1.476839464E-2,2.853187919E-2,1.146985516E-1,1.191131032E-1
3.157825542E0,-3.881460801E-2,2.543062717E-2,1.197151467E-1,1.283939521E-1
3.167787542E0,-7.084381580E-2,2.316536754E-2,1.227367744E-1,1.435959480E-1
3.177748542E0,-8.566350490E-2,1.717858016E-2,1.265416294E-1,1.537729614E-1
3.187710542E0,-9.662209451E-2,3.738678060E-5,1.228962839E-1,1.563308259E-1
3.197672542E0,-9.378422797E-2,-1.212234050E-2,1.179222912E-1,1.511558775E-1
3.207633542E0,-8.631496876E-2,-2.997150086E-2,1.164636984E-1,1.480282330E-1
3.217595542E0,-7.217597961E-2,-5.383155495E-2,1.094822213E-1,1.417517729E-1
3.227556542E0,-5.369596183E-2,-7.282708585E-2,1.048813388E-1,1.385176378E-1
3.237518542E0,-3.259893507E-2,-8.566139638E-2,9.975714982E-2,1.354697543E-1
3.247480542E0,-1.539509650E-2,-8.809065819E-2,8.968934417E-2,1.266536676E-1
3.257441542E0,-3.149615601E-3,-8.635028452E-2,8.624747396E-2,1.220857014E-1
3.267403542E0,-1.264341408E-3,-7.101807743E-2,8.539126068E-2,1.110712982E-1
3.277364542E0,-7.555526681E-3,-4.454598948E-2,8.455316722E-2,9.586797823E-2
3.287326542E0,-1.532223634E-2,-2.422548831E-2,8.046680689E-2,8.541985847E-2
3.297288542E0,-2.111274749E-2,-3.507692367E-3,7.743160427E-2,8.033495722E-2
3.307249542E0,-1.952887513E-2,6.361692213E-3,6.842266768E-2,7.143885178E-2
3.317211542E0,-1.652962342E-2,1.245340705E-2,5.832689255E-2,6.188975838E-2
3.327172542E0,-8.493502624E-3,6.599803455E-3,4.107786715E-2,4.246278561E-2
3.337134542E0,1.473643817E-3,-9.452399798E-3,2.266184241E-2,2.459834525E-2
3.347096542E0,9.579224512E-3,-1.988087967E-2,3.683080897E-3,2.237355590E-2
3.357057542E0,9.298261255E-3,-2.316855080E-2,-9.325396270E-3,2.664962334E-2
3.367019542E0,3.207851434E-3,-2.261969820E-2,-2.286490798E-2,3.232251652E-2
3.376980542E0,-6.404295564E-3,-2.407777868E-2,-3.350876272E-2,4.175633613E-2
3.386942542E0,-1.684758626E-2,-1.866599359E-2,-4.553052783E-2,5.201239702E-2
3.396904542E0,-2.384078130E-2,-1.619218290E-2,-5.254556239E-2,5.993000723E-2
3.406865542E0,-3.240629286E-2,-1.908265613E-2,-6.106847525E-2,7.171941335E-2
3.416827542E0,-3.639437258E-2,-2.436903119E-2,-6.483870745E-2,7.824613741E-2
3.426788542E0,-3.864924610E-2,-2.756080590E-2,-6.554844230E-2,8.093182646E-2
3.436750542E0,-3.733523935E-2,-2.966097556E-2,-6.034755707E-2,7.691242561E-2
3.446712542E0,-3.094745241E-2,-3.168226779E-2,-5.616586655E-2,7.152702614E-2
3.456673542E0,-1.776454039E-2,-3.683548421E-2,-4.706504941E-2,6.235022589E-2
3.466635542E0,-8.935438236E-4,-3.495240957E-2,-3.983429819E-2,5.300227040E-2
3.476596542E0,1.985088363E-2,-3.625815362E-2,-3.146158531E-2,5.194749883E-2
3.486558542E0,3.781185299E-2,-3.734888881E-2,-1.803367399E-2,5.612387299E-2
3.496520542E0,5.497885495E-2,-3.842400759E-2,-1.244715974E-2,6.822030957E-2
3.506481542E0,7.127202302E-2,-4.033170640E-2,-7.133340463E-3,8.220238654E-2
3.516443542E0,7.926283777E-2,-4.199777544E-2,-3.312236629E-3,8.976291831E-2
3.526404542E0,8.024897426E-2,-5.442827940E-2,-3.596402705E-3,9.703231205E-2
3.536366542E0,7.303021103E-2,-4.961541295E-2,-6.582871079E-3,8.853493727E-2
3.546328542E0,6.208309904E-2,-4.169446975E-2,-2.202734165E-2,7.796116837E-2
3.556289542E0,4.398505762E-2,-3.318326920E-2,-2.762637101E-2,6.163628010E-2
3.566251542E0,2.145916596E-2,-2.411201224E-2,-3.425843641E-2,4.706936799E-2
3.576212542E0,1.720348606E-3,-3.225569427E-2,-4.242555052E-2,5.332276014E-2
3.586174542E0,-1.129223034E-2,-3.972871974E-2,-4.906055331E-2,6.413129914E-2
3.596136542E0,-1.734426431E-2,-4.704788327E-2,-5.805298686E-2,7.671033899E-2
3.606097542E0,-2.117069438E-2,-6.200845540E-2,-6.880283356E-2,9.501092962E-2
3.616059542E0,-1.982659847E-2,-7.956214994E-2,-7.898969203E-2,1.138534196E-1
3.626021542E0,-1.089490578E-2,-9.627866745E-2,-8.350507170E-2,1.279116014E-1
3.635982542E0,-2.222322160E-3,-1.003953815E-1,-8.051966876E-2,1.287151444E-1
3.645944542E0,6.899369881E-3,-1.038159952E-1,-7.828103751E-2,1.302047733E-1
3.655905542E0,7.969960570E-3,-1.080738604E-1,-6.591731310E-2,1.268407338E-1
3.665867542E0,1.704918034E-2,-1.125622988E-1,-5.277726427E-2,1.254846018E-1
3.675829542E0,2.164073661E-2,-1.078599542E-1,-3.658151627E-2,1.159323015E-1
3.685790542E0,2.344751172E-2,-1.018507257E-1,-2.268460393E-2,1.069483398E-1
3.695752542E0,2.970381081E-2,-8.785501868E-2,-9.835915640E-3,9.326074158E-2
3.705713542E0,3.425927088E-2,-8.904583752E-2,-1.691445708E-3,9.542389538E-2
3.715675542E0,4.122796282E-2,-1.043845788E-1,5.006404594E-3,1.123429984E-1
3.725637542E0,4.461734369E-2,-1.234800965E-1,2.459362149E-3,1.313167546E-1
3.735598542E0,4.191689938E-2,-1.446636766E-1,5.177916959E-3,1.507030743E-1
3.745560542E0,3.518200293E-2,-1.727218628E-1,6.452232599E-3,1.763866393E-1
3.755521542E0,1.938599721E-2,-1.976461262E-1,1.627024263E-2,1.992599530E-1
3.765483542E0,3.516276367E-3,-2.139407247E-1,2.191748284E-2,2.150892232E-1
3.775445542E0,-1.817836799E-2,-2.165716588E-1,3.485858440E-2,2.201110115E-1
3.785406542E0,-3.310836479E-2,-2.078920305E-1,4.334580898E-2,2.149281724E-1
3.795368542E0,-4.854644090E-2,-1.966497600E-1,5.660462379E-2,2.103139759E-1
3.805329542E0,-5.630522221E-2,-1.763442308E-1,6.806527078E-2,1.972319621E-1
3.815291542E0,-5.238771066E-2,-1.188886613E-1,7.054892927E-2,1.478382137E-1
3.825253542E0,-4.917226732E-2,-7.500008494E-2,7.479427010E-2,1.167780264E-1
3.835214542E0,-4.021552578E-2,-4.721665382E-2,8.587009460E-2,1.059262671E-1
3.845176542E0,-1.848202385E-2,-2.029531449E-2,8.892340958E-2,9.306372960E-2
3.855137542E0,5.664591677E-3,2.284336649E-2,8.838225901E-2,9.146218180E-2
3.865099542E0,3.385130316E-2,8.732549101E-2,7.443075627E-2,1.196310561E-1
3.875061542E0,6.429070234E-2,1.483105421E-1,5.905579776E-2,1.720956088E-1
3.885022542E0,9.064649045E-2,1.972699165E-1,3.643490747E-2,2.201356597E-1
3.894984500E0,1.087455973E-1,2.348929197E-1,1.436609030E-2,2.592424988E-1
3.904946500E0,1.153300479E-1,2.625171542E-1,-2.588547394E-2,2.878998680E-1
3.914907500E0,1.103075966E-1,2.810226679E-1,-6.420782954E-2,3.086489124E-1
3.924869500E0,9.126359969E-2,2.724436224E-1,-1.067281067E-1,3.065052377E-1
3.934830500E0,5.251220614E-2,2.492541671E-1,-1.281468570E-1,2.851434526E-1
3.944792500E0,-9.816745296E-5,2.009694278E-1,-1.421595961E-1,2.461667551E-1
3.954754500E0,-6.298046559E-2,1.285375655E-1,-1.457306296E-1,2.042690901E-1
3.964715500E0,-1.278297156E-1,4.991853982E-2,-1.373589784E-1,1.941643267E-1
3.974677500E0,-1.899189204E-1,-3.038375638E-2,-1.081494391E-1,2.206550932E-1
3.984638500E0,-2.461867929E-1,-1.065356359E-1,-5.823940784E-2,2.744988293E-1
3.994600500E0,-2.815141678E-1,-1.549742818E-1,1.410337165E-3,3.213553232E-1
4.004562500E0,-2.897252440E-1,-1.866300553E-1,6.928765774E-2,3.515284826E-1
4.014523500E0,-2.673994303E-1,-1.970800310E-1,1.400574297E-1,3.604983739E-1
4.024485500E0,-2.189923227E-1,-1.997620314E-1,2.140062302E-1,3.655970093E-1
4.034446500E0,-1.466345042E-1,-1.907136738E-1,2.901412249E-1,3.769022600E-1
4.044408500E0,-6.086197123E-2,-1.715248674E-1,3.543921113E-1,3.983951910E-1
4.054370500E0,3.477054462E-2,-1.482075602E-1,4.055538177E-1,4.331839918E-1
4.064331500E0,1.293386519E-1,-1.300789267E-1,4.410779774E-1,4.777015765E-1
4.074293500E0,2.119272649E-1,-1.277984530E-1,4.558196366E-1,5.186686334E-1
4.084254500E0,2.700018585E-1,-1.236196980E-1,4.439778924E-1,5.341340677E-1
4.094216500E0,2.925047576E-1,-9.453504533E-2,4.294191897E-1,5.281067586E-1
4.104178500E0,2.683209181E-1,-6.345201284E-2,4.092918336E-1,4.934998258E-1
4.114139500E0,2.129063755E-1,-2.744527347E-2,3.802742958E-1,4.366817008E-1
4.124101500E0,1.352297962E-1,5.095988512E-3,3.401798904E-1,3.661084876E-1
4.134062500E0,4.011420533E-2,3.397850320E-2,2.879084349E-1,2.926686779E-1
4.144024500E0,-5.465048552E-2,4.317037761E-2,2.293718755E-1,2.397119404E-1
4.153986500E0,-1.410908252E-1,2.659539692E-2,1.689532697E-1,2.217186132E-1
4.163947500E0,-2.138587087E-1,-1.173818950E-3,1.147059947E-1,2.426816647E-1
4.173909500E0,-2.673808038E-1,8.035125211E-3,7.670082152E-2,2.782805662E-1
4.183871500E0,-2.972290218E-1,-3.192974627E-2,3.972496837E-2,3.015670294E-1
4.193832500E0,-2.965672016E-1,-4.095652699E-2,1.697358303E-2,2.998627097E-1
4.203794500E0,-2.735730708E-1,-4.447449371E-2,-8.249746636E-3,2.772873310E-1
4.213755500E0,-2.281944007E-1,-1.535735466E-2,-2.646097541E-2,2.302362180E-1
4.223717500E0,-1.706113666E-1,1.232388057E-2,-3.730510175E-2,1.750765178E-1
4.233679500E0,-1.036499143E-1,4.420937598E-2,-3.264110908E-2,1.173167322E-1
4.243640500E0,-4.876988009E-2,7.758180797E-2,-1.540833618E-2,9.292392026E-2
4.253602500E0,2.402741229E-4,9.207393229E-2,7.179263979E-3,9.235371444E-2
4.263563500E0,4.146254435E-2,9.500713646E-2,3.313469887E-2,1.088274176E-1
4.273525500E0,7.062921673E-2,7.686568052E-2,5.199866742E-2,1.166219555E-1
4.283487500E0,9.544057399E-2,6.960210204E-2,7.097822428E-2,1.378087954E-1
4.293448500E0,1.058282331E-1,4.994345456E-2,7.414605469E-2,1.385337540E-1
4.303410500E0,1.046725735E-1,5.235109478E-2,7.346800715E-2,1.381829687E-1
4.313371500E0,8.819905668E-2,4.956036806E-2,6.106299907E-2,1.181693426E-1
4.323333500E0,6.211763993E-2,5.894994736E-2,4.226882011E-2,9.550052689E-2
4.333295500E0,1.770783029E-2,6.092841178E-2,2.756950445E-2,6.918031651E-2
4.343256500E0,-2.386840060E-2,6.379900873E-2,1.824418083E-2,7.051853796E-2
4.353218500E0,-6.899885833E-2,5.081396550E-2,6.231725216E-3,8.591702940E-2
4.363180500E0,-9.940106422E-2,3.932109475E-2,-7.870797999E-3,1.071852113E-1
4.373141500E0,-1.216429844E-1,4.123271257E-2,-2.058925666E-2,1.300810122E-1
4.383103500E0,-1.282135695E-1,5.537983775E-2,-3.998132050E-2,1.452726809E-1
4.393064500E0,-1.190805286E-1,9.385745227E-2,-5.506200716E-2,1.613109366E-1
4.403026500E0,-9.200239182E-2,1.523460597E-1,-7.700084895E-2,1.939146532E-1
4.412988500E0,-4.909620434E-2,2.235318273E-1,-1.048705652E-1,2.517434221E-1
4.422949500E0,2.450587461E-3,2.788491845E-1,-1.411803663E-1,3.125616242E-1
4.432911500E0,6.173734367E-2,3.160697818E-1,-1.830010414E-1,3.704065168E-1
4.442872500E0,1.150825322E-1,3.153289557E-1,-2.272239029E-1,4.053480499E-1
4.452834500E0,1.516157836E-1,2.811821699E-1,-2.672924995E-1,4.165285570E-1
4.462796500E0,1.604347229E-1,2.180087715E-1,-2.957182825E-1,4.008945340E-1
4.472757500E0,1.425252408E-1,1.681360155E-1,-2.970008552E-1,3.698549337E-1
4.482719500E0,1.014083996E-1,8.210257441E-2,-2.956524789E-1,3.231638664E-1
4.492680500E0,5.137772486E-2,1.129631139E-2,-2.821920812E-1,2.870533887E-1
4.502642500E0,-1.796206832E-2,-3.624159843E-2,-2.624434233E-1,2.655421620E-1
4.512604500E0,-8.414322138E-2,-4.557491466E-2,-2.465057224E-1,2.644281107E-1
4.522565500E0,-1.385416836E-1,-6.191416085E-2,-2.297208756E-1,2.753158951E-1
4.532527500E0,-1.746522933E-1,-7.857862115E-2,-2.089349031E-1,2.834286807E-1
4.542489500E0,-1.815747470E-1,-8.098045737E-2,-1.967626661E-1,2.797190912E-1
4.552450500E0,-1.605094075E-1,-7.357952744E-2,-1.882314980E-1,2.580858648E-1
4.562412500E0,-1.067867130E-1,-7.381175458E-2,-1.910456568E-1,2.309762329E-1
4.572373500E0,-3.621720895E-2,-9.345629811E-2,-2.051638812E-1,2.283374346E-1
4.582335500E0,5.409140512E-2,-1.172907650E-1,-2.273213863E-1,2.614536601E-1
4.592297500E0,1.399314851E-1,-1.496191323E-1,-2.545125186E-1,3.267159736E-1
4.602258500E0,2.043611854E-1,-1.738016754E-1,-2.764969170E-1,3.852545413E-1
4.612220500E0,2.438763678E-1,-1.930033416E-1,-3.032813966E-1,4.344025531E-1
4.622181500E0,2.474492937E-1,-2.108161449E-1,-3.221794367E-1,4.576835035E-1
4.632143500E0,2.172911316E-1,-2.249633819E-1,-3.426439762E-1,4.639276382E-1
4.642105500E0,1.538828760E-1,-2.317573428E-1,-3.593734205E-1,4.544674475E-1
4.652066500E0,6.456045806E-2,-2.211337239E-1,-3.607678413E-1,4.280439369E-1
4.662028500E0,-3.366177529E-2,-1.845308542E-1,-3.662153482E-1,4.114589075E-1
4.671989500E0,-1.274447292E-1,-1.167949587E-1,-3.655452728E-1,4.043594538E-1
4.681951500E0,-1.984806210E-1,-5.617935210E-2,-3.743806183E-1,4.274476856E-1
4.691913500E0,-2.307599932E-1,-3.403543308E-2,-3.784062564E-1,4.445220805E-1
4.701874500E0,-2.347300053E-1,-2.566666901E-2,-3.895100057E-1,4.554942347E-1
4.711836500E0,-1.985594928E-1,-1.391839981E-2,-3.953377903E-1,4.426189811E-1
4.721798500E0,-1.428431422E-1,9.975577705E-3,-3.890255988E-1,4.145414236E-1
4.731759500E0,-6.763999164E-2,7.194333524E-2,-3.631087840E-1,3.762964270E-1
4.741721500E0,1.838179864E-2,6.531988829E-2,-3.427662253E-1,3.494184648E-1
4.751682500E0,1.034479514E-1,5.997492746E-2,-3.103406429E-1,3.325804943E-1
4.761644500E0,1.717731357E-1,4.008467495E-2,-2.673859596E-1,3.203249018E-1
4.771606500E0,2.218480259E-1,4.099839926E-2,-2.189017981E-1,3.143491889E-1
4.781567500E0,2.473853379E-1,5.533756316E-2,-1.698386371E-1,3.051342557E-1
4.791529500E0,2.517015338E-1,8.697671443E-2,-1.232322603E-1,2.934361957E-1
4.801490500E0,2.375431955E-1,1.082132235E-1,-9.101146460E-2,2.764415999E-1
4.811452500E0,2.096772045E-1,1.087644920E-1,-7.020898163E-2,2.464214802E-1
4.821414500E0,1.707557291E-1,1.045505777E-1,-5.891372636E-2,2.087083359E-1
4.831375500E0,1.248553544E-1,9.809853137E-2,-5.953344330E-2,1.695771572E-1
4.841337500E0,7.626712322E-2,9.769726545E-2,-6.863215566E-2,1.416749891E-1
4.851298500E0,3.415935487E-2,9.157119691E-2,-8.033062518E-2,1.265114816E-1
4.861260500E0,-9.314116091E-3,7.787623256E-2,-9.050014615E-2,1.197569907E-1
4.871222500E0,-4.371123761E-2,6.053958833E-2,-9.619638324E-2,1.217762629E-1
4.881183500E0,-6.883251667E-2,3.984218091E-2,-9.741904587E-2,1.257608255E-1
4.891145250E0,-7.826090604E-2,1.518423669E-2,-9.762997180E-2,1.260434126E-1
4.901107250E0,-6.498610973E-2,-1.398350298E-2,-9.479636699E-2,1.157803265E-1
4.911068250E0,-3.909432516E-2,-3.009802289E-2,-9.998713434E-2,1.114974631E-1
4.921030250E0,-2.230775775E-3,-2.867262624E-2,-8.615253121E-2,9.082595713E-2
4.930991250E0,2.881182916E-2,-2.524567209E-2,-6.629840285E-2,7.656986143E-2
4.940953250E0,5.732742324E-2,-2.209970355E-2,-4.097468406E-2,7.384954358E-2
4.950915250E0,8.417288959E-2,-2.293833345E-2,-1.735857129E-2,8.895258558E-2
4.960876250E0,1.041913703E-1,-3.418038040E-2,5.055405200E-3,1.097711127E-1
4.970838250E0,1.150197834E-1,-3.675619513E-2,2.271695621E-2,1.228683383E-1
4.980799250E0,1.260690838E-1,-1.359724719E-2,3.743090481E-2,1.322095748E-1
4.990761250E0,1.250043511E-1,-2.606536821E-2,4.823933914E-2,1.365010076E-1
5.000723250E0,1.128760427E-1,-1.908602193E-2,5.779343471E-2,1.282394571E-1
5.010684250E0,9.174838662E-2,-7.675175555E-3,6.045899168E-2,1.101451971E-1
5.020646250E0,6.813707948E-2,-1.064334158E-2,5.360695720E-2,8.734785733E-2
5.030608250E0,4.498968273E-2,-2.204992622E-2,4.188185930E-2,6.530207453E-2
5.040569250E0,2.212756872E-2,-2.864030562E-2,2.951253392E-2,4.669995784E-2
5.050531250E0,-6.792113418E-4,-2.689353935E-2,1.599646173E-2,3.129873121E-2
5.060492250E0,-2.666258626E-2,-3.890250623E-2,2.052951604E-3,4.720712984E-2
5.070454250E0,-4.228122532E-2,-4.276994616E-2,-3.314384259E-3,6.023251159E-2
5.080416250E0,-5.618796125E-2,-4.092914611E-2,-1.086657494E-2,7.035882633E-2
5.090377250E0,-6.360273808E-2,-3.053323366E-2,-1.409858651E-2,7.194690258E-2
5.100339250E0,-6.233867258E-2,-1.395936497E-2,-1.089746132E-2,6.480531330E-2
5.110300250E0,-5.836709589E-2,6.674807519E-3,-1.068094745E-2,5.971058178E-2
5.120262250E0,-4.551468045E-2,1.838605851E-2,5.216393620E-4,4.909078723E-2
5.130224250E0,-3.114133514E-2,3.088427335E-2,1.267630793E-2,4.565424271E-2
5.140185250E0,-1.276208553E-2,4.107190669E-2,2.937352657E-2,5.208240019E-2
5.150147250E0,1.718053594E-3,4.578276724E-2,4.361637682E-2,6.325663452E-2
5.160109250E0,1.625904441E-2,4.663600028E-2,5.833407864E-2,7.643387847E-2
5.170070250E0,2.551752515E-2,4.536779970E-2,7.490825653E-2,9.121747769E-2
5.180032250E0,2.892108448E-2,4.310513288E-2,8.049821854E-2,9.578332211E-2
5.189993250E0,2.700067870E-2,4.152534530E-2,8.991329372E-2,1.026537449E-1
5.199955250E0,1.947308145E-2,3.954351693E-2,9.702740610E-2,1.065702030E-1
5.209917250E0,8.329351433E-3,4.327380657E-2,1.020029932E-1,1.111153052E-1
5.219878250E0,-4.777129740E-3,4.278831184E-2,1.048616320E-1,1.133561752E-1
5.229840250E0,-1.906445622E-2,3.338389099E-2,1.069189161E-1,1.136203868E-1
5.239801250E0,-2.928859740E-2,2.165213414E-2,1.095376015E-1,1.154344965E-1
5.249763250E0,-4.170966148E-2,1.340016071E-2,1.124953106E-1,1.207247078E-1
5.259725250E0,-5.095208064E-2,1.033103652E-2,1.188884974E-1,1.297586977E-1
5.269686250E0,-5.665923655E-2,1.772050932E-2,1.214113086E-1,1.351480351E-1
5.279648250E0,-6.020347774E-2,2.876967564E-2,1.204533651E-1,1.376995503E-1
5.289609250E0,-5.481643602E-2,2.829589881E-2,1.230313107E-1,1.376306760E-1
5.299571250E0,-4.622624815E-2,2.589868940E-2,1.171441227E-1,1.285704228E-1
5.309533250E0,-3.388249874E-2,3.061088733E-2,1.051266044E-1,1.146152394E-1
5.319494250E0,-1.581648923E-2,3.225016221E-2,9.609715641E-2,1.025909244E-1
5.329456250E0,-5.680765491E-3,3.556979075E-2,8.526208997E-2,9.255865760E-2
5.339418250E0,-3.515109420E-3,3.574294224E-2,7.777808607E-2,8.566997483E-2
5.349379250E0,-6.816363893E-3,3.220706433E-2,7.242779434E-2,7.955842634E-2
5.359341250E0,-1.678342745E-2,3.399308026E-2,7.486909628E-2,8.392016754E-2
5.369302250E0,-3.326785937E-2,3.485913947E-2,6.987726688E-2,8.488075459E-2
5.379264250E0,-4.543875158E-2,3.993381560E-2,6.991402805E-2,9.245193936E-2
5.389226250E0,-5.153658986E-2,4.532911628E-2,6.383136660E-2,9.372935634E-2
5.399187250E0,-5.716437846E-2,5.175558478E-2,6.412191689E-2,1.002897151E-1
5.409149250E0,-5.917213857E-2,5.818019807E-2,5.965819210E-2,1.022026287E-1
5.419111250E0,-5.741612241E-2,5.642483756E-2,5.839078128E-2,9.944775887E-2
5.429072250E0,-4.938136414E-2,4.994376749E-2,6.449688226E-2,9.535589576E-2
5.439034250E0,-4.201032594E-2,4.491211101E-2,6.905062497E-2,9.246596136E-2
5.448995250E0,-2.967962250E-2,3.290951252E-2,7.288157940E-2,8.529736586E-2
5.458957250E0,-1.680281013E-2,2.532037161E-2,7.467707992E-2,8.062333354E-2
5.468919250E0,-6.541917101E-3,2.065344900E-2,7.445816696E-2,7.754598804E-2
5.478880250E0,2.955432865E-4,1.308709476E-2,7.800921053E-2,7.909991354E-2
5.488842250E0,4.880174994E-3,9.241489694E-3,7.727577537E-2,7.797927096E-2
5.498803250E0,-2.385913394E-3,1.078382321E-2,8.665810525E-2,8.735909015E-2
5.508765250E0,-5.455206614E-3,1.949262619E-2,9.079958498E-2,9.302841710E-2
5.518727250E0,-1.110258047E-2,2.280049026E-2,9.448647499E-2,9.783058625E-2
5.528688250E0,-1.261498965E-2,1.359953452E-2,9.053061903E-2,9.241146187E-2
5.538650250E0,-9.498115629E-3,5.774102174E-3,8.139598370E-2,8.215144928E-2
5.548612250E0,-5.805109628E-3,-3.565603867E-3,7.155586779E-2,7.187944800E-2
5.558573250E0,-5.480232183E-3,-9.708039463E-3,6.080522388E-2,6.181872068E-2
5.568535250E0,-6.241896190E-3,-8.541574702E-3,5.074752867E-2,5.183851303E-2
5.578496250E0,-7.906009443E-3,-2.329049166E-3,4.436416551E-2,4.512326049E-2
5.588458250E0,-1.250528917E-2,2.814579988E-3,3.178578988E-2,3.427302957E-2
5.598420250E0,-1.404510718E-2,1.065887231E-2,2.341948822E-2,2.931465543E-2
5.608381250E0,-1.117981225E-2,1.706190966E-2,1.007518545E-2,2.275096317E-2
5.618343250E0,-1.242224034E-2,1.772506163E-2,-3.196398728E-3,2.187936995E-2
5.628304250E0,-1.143367495E-2,9.966207668E-3,-1.501337718E-2,2.134140840E-2
5.638266250E0,-1.076263376E-2,8.976504207E-3,-2.718669549E-2,3.058640751E-2
5.648228250E0,-1.282551885E-2,1.394649595E-2,-4.007479548E-2,4.432818422E-2
5.658189250E0,-1.200471073E-2,1.345853228E-2,-4.534917325E-2,4.880361344E-2
5.668151250E0,-1.364841312E-2,1.372271776E-2,-4.782378674E-2,5.159173133E-2
5.678113250E0,-1.311753131E-2,1.533758640E-2,-4.843074828E-2,5.246759537E-2
5.688074250E0,-1.111669838E-2,1.986016519E-2,-4.987977445E-2,5.482699193E-2
5.698036250E0,-7.515775971E-3,2.075772360E-2,-4.687891155E-2,5.181700808E-2
5.707997250E0,-3.502924461E-3,2.293086238E-2,-4.698650539E-2,5.240063566E-2
5.717959250E0,4.275890067E-3,2.775721252E-2,-4.224687070E-2,5.073011104E-2
5.727921250E0,1.269680541E-2,3.525747359E-2,-4.056641459E-2,5.522619220E-2
5.737882250E0,2.602501772E-2,3.822421283E-2,-4.406819865E-2,6.387799407E-2
5.747844250E0,3.509254754E-2,3.612989932E-2,-4.818384722E-2,6.970322554E-2
5.757805250E0,4.045106843E-2,3.598127514E-2,-5.377435684E-2,7.630611084E-2
5.767767250E0,4.327907786E-2,3.489629924E-2,-5.683353171E-2,7.950396599E-2
5.777729250E0,4.125000164E-2,3.195491433E-2,-6.428400427E-2,8.279560610E-2
5.787690250E0,3.947686777E-2,3.001746163E-2,-6.917889416E-2,8.511868472E-2
5.797652250E0,3.062347136E-2,2.336587943E-2,-7.028116286E-2,8.014488862E-2
5.807614250E0,2.722394653E-2,1.812717505E-2,-7.531533390E-2,8.211051857E-2
5.817575250E0,1.181895938E-2,1.927850768E-2,-7.501895726E-2,7.835299999E-2
5.827537250E0,3.432664555E-3,2.448019385E-2,-7.122075558E-2,7.538871999E-2
5.837498250E0,-4.217695445E-3,1.590706781E-2,-6.932856143E-2,7.125498713E-2
5.847460250E0,-3.728472628E-3,7.570041344E-3,-6.595832855E-2,6.649592573E-2
5.857422250E0,-2.756985836E-3,-9.026608896E-4,-6.613382697E-2,6.619742319E-2
5.867383250E0,5.857274868E-3,-6.743505597E-3,-6.432234496E-2,6.493956111E-2
5.877345250E0,1.754977182E-2,-1.016898453E-2,-6.527230889E-2,6.835113053E-2
5.887307250E0,2.818670310E-2,-9.252058342E-3,-6.276707351E-2,6.942475302E-2
5.897267625E0,3.702877462E-2,-9.599479847E-3,-5.942239612E-2,7.067037091E-2
5.907229625E0,3.488759324E-2,-4.780489486E-3,-5.403721333E-2,6.449819893E-2
5.917190625E0,4.163648933E-2,1.224309672E-3,-4.462002218E-2,6.104131844E-2
5.927152625E0,4.366208985E-2,4.985556006E-5,-4.120185599E-2,6.003310347E-2
5.937114625E0,4.558314756E-2,1.209347392E-3,-4.316247255E-2,6.278761740E-2
5.947075625E0,5.212520435E-2,-1.139805652E-2,-4.042261094E-2,6.693982444E-2
5.957037625E0,5.254370719E-2,-1.247997861E-2,-4.833830893E-2,7.247884617E-2
5.966998625E0,4.692097753E-2,-1.320595667E-2,-4.930743575E-2,6.933396458E-2
5.976960625E0,3.619800881E-2,-9.645793587E-3,-4.973672330E-2,6.226619324E-2
5.986922625E0,2.596134879E-2,-7.193022408E-3,-5.473840982E-2,6.100839870E-2
5.996883625E0,1.302246004E-2,-7.939239964E-3,-5.766845495E-2,5.965120864E-2
6.006845625E0,4.612463992E-3,-7.671326399E-3,-6.053108722E-2,6.118935032E-2
6.016807625E0,-3.297349904E-3,-7.069936022E-3,-6.364111602E-2,6.411745597E-2
6.026768625E0,-7.756813429E-3,-6.219321862E-3,-6.135745719E-2,6.215774829E-2
6.036730625E0,-9.688399732E-3,-8.802225813E-3,-5.879840627E-2,6.023783569E-2
6.046691625E0,-6.024156231E-3,-1.055192295E-2,-6.066847965E-2,6.187324106E-2
6.056653625E0,-1.452578232E-3,-1.109184138E-2,-5.501753837E-2,5.614328506E-2
6.066615625E0,4.685209133E-3,-1.074190252E-2,-5.312935635E-2,5.440650844E-2
6.076576625E0,1.320554502E-2,-8.584476076E-3,-4.789755493E-2,5.042078359E-2
6.086538625E0,1.952016540E-2,-2.516996115E-3,-4.341066629E-2,4.766401236E-2
6.096499625E0,2.686360478E-2,-2.608390991E-3,-3.561267629E-2,4.468466939E-2
6.106461625E0,2.826629207E-2,-1.217155717E-3,-2.346626297E-2,3.675772344E-2
6.116423625E0,2.673261799E-2,5.619570147E-4,-1.334492862E-2,2.988370426E-2
6.126384625E0,2.706497908E-2,-1.301523298E-6,-8.369877934E-3,2.832963026E-2
6.136346625E0,2.461149171E-2,3.996538930E-3,-7.093511522E-5,2.493397039E-2
6.146308625E0,1.974190213E-2,1.801828155E-3,7.854364812E-3,2.132323453E-2
6.156269625E0,1.219280344E-2,-1.824791776E-3,1.297988184E-2,1.790172207E-2
6.166231625E0,7.657706272E-3,-9.261402301E-3,1.945429295E-2,2.286664716E-2
6.176192625E0,3.319724463E-3,-1.151279081E-2,2.424852178E-2,2.704728694E-2
6.186154625E0,6.730749737E-4,-1.301401388E-2,2.517716587E-2,2.834973136E-2
6.196116625E0,6.286101416E-4,-1.771989278E-2,2.659983933E-2,3.196781512E-2
6.206077625E0,-2.771713771E-3,-1.798008382E-2,2.112331614E-2,2.787759488E-2
6.216039625E0,2.406612970E-3,-1.720638573E-2,1.760737970E-2,2.473603275E-2
6.226001625E0,-8.024963317E-4,-1.716164500E-2,1.703533158E-2,2.419439152E-2
6.235962625E0,-4.381256644E-3,-1.900515892E-2,1.657542214E-2,2.559562647E-2
6.245924625E0,-9.292924777E-3,-1.246816292E-2,1.840927452E-2,2.409802743E-2
6.255885625E0,-1.499972958E-2,-8.853741456E-4,2.328498848E-2,2.771220784E-2
6.265847625E0,-1.764718071E-2,2.427065512E-3,2.451616712E-2,3.030439051E-2
6.275809625E0,-1.782310195E-2,1.719584456E-3,2.491725609E-2,3.068370227E-2
6.285770625E0,-1.493596844E-2,2.796034096E-3,2.421418205E-2,2.858719245E-2
6.295732625E0,-9.065059945E-3,7.186570205E-3,2.008226886E-2,2.317584143E-2
6.305694625E0,-9.186234325E-3,9.032407776E-3,1.701004803E-2,2.133806517E-2
6.315655625E0,-3.717055544E-3,1.938077249E-2,1.933020912E-2,2.762404440E-2
6.325617625E0,-1.099973544E-2,2.270892449E-2,1.660419814E-2,3.020577473E-2
6.335578625E0,-1.219921093E-2,3.150277957E-2,1.871234551E-2,3.861861912E-2
6.345540625E0,-2.180177160E-2,3.802007064E-2,1.816986129E-2,4.744456634E-2
6.355502625E0,-1.991182193E-2,3.727082163E-2,1.759783179E-2,4.577421197E-2
6.365463625E0,-2.340748720E-2,3.505986929E-2,1.485344395E-2,4.469596949E-2
6.375425625E0,-1.934119500E-2,3.105207533E-2,8.194988593E-3,3.748961248E-2
6.385386625E0,-2.097823843E-2,2.636864036E-2,2.451881766E-3,3.378466230E-2
6.395348625E0,-2.171512507E-2,2.455974929E-2,6.253024563E-3,3.337406565E-2
6.405310625E0,-2.319770679E-2,2.144917659E-2,6.983529776E-3,3.235692298E-2
6.415271625E0,-2.657303028E-2,2.067104913E-2,1.319693401E-2,3.616043802E-2
6.425233625E0,-2.787664719E-2,1.510291360E-2,2.177124657E-2,3.846027346E-2
6.435195625E0,-2.727044560E-2,1.333517954E-2,2.739638463E-2,4.089090494E-2
6.445156625E0,-2.817964926E-2,1.279322617E-2,3.225958347E-2,4.470391475E-2
6.455118625E0,-2.734917775E-2,7.948670536E-3,4.008767009E-2,4.917499547E-2
6.465079625E0,-1.753596216E-2,6.752644666E-3,4.261687398E-2,4.657581053E-2
6.475041625E0,-1.396035776E-2,2.053085482E-3,4.891470820E-2,5.090928625E-2
6.485003625E0,-8.179700933E-3,-1.767485403E-3,5.356538296E-2,5.421514330E-2
6.494964625E0,-5.562757608E-3,-6.334322505E-3,5.749009177E-2,5.810489279E-2
6.504926625E0,-2.739274409E-3,-3.535606666E-3,6.307233870E-2,6.323072076E-2
6.514888625E0,1.638655551E-3,-2.860882785E-3,6.694538891E-2,6.702652415E-2
6.524849625E0,1.148367650E-3,1.205231529E-3,6.948870420E-2,6.950864222E-2
6.534811625E0,-1.544109196E-3,5.442828871E-3,7.280699909E-2,7.302648681E-2
6.544772625E0,-3.337481990E-3,8.690821007E-3,7.588507980E-2,7.645400246E-2
6.554734625E0,-8.890107274E-3,7.954528555E-3,7.708990574E-2,7.800744899E-2
6.564696625E0,-8.294890635E-3,3.348591970E-3,7.863347232E-2,7.914064220E-2
6.574657625E0,-5.120017566E-3,2.301994013E-3,6.893503666E-2,6.916323471E-2
6.584619625E0,-5.068618339E-3,5.725373048E-4,5.823019147E-2,5.845317690E-2
6.594581625E0,-4.650891293E-3,-4.582495429E-3,5.060927942E-2,5.102870974E-2
6.604542625E0,-1.181239821E-2,-1.217117254E-2,4.691707715E-2,4.988869933E-2
6.614504625E0,-1.680636220E-2,-1.059741434E-2,4.119689763E-2,4.573776749E-2
6.624465625E0,-2.027033642E-2,-4.454300739E-3,3.560052812E-2,4.120831149E-2
6.634427625E0,-2.192915231E-2,7.597011514E-3,3.128805757E-2,3.895567804E-2
6.644389625E0,-2.222582698E-2,1.031476725E-2,2.750290930E-2,3.683465526E-2
6.654350625E0,-1.951591484E-2,9.555089287E-3,2.042420395E-2,2.982144816E-2
6.664312625E0,-1.712892205E-2,9.330851026E-3,1.762016304E-2,2.628564051E-2
6.674274625E0,-1.571695879E-2,1.163801923E-2,1.660019346E-2,2.565214822E-2
6.684235625E0,-1.451986656E-2,1.286600344E-2,1.760260947E-2,2.619565669E-2
6.694197625E0,-1.310509630E-2,1.021242980E-2,1.933551580E-2,2.549312540E-2
6.704158625E0,-1.276873890E-2,6.469356827E-3,2.145699039E-2,2.579332680E-2
6.714120625E0,-8.439974859E-3,9.417016059E-3,2.311721444E-2,2.634993303E-2
6.724082625E0,-5.377338734E-3,1.565600373E-2,2.198936790E-2,2.752378109E-2
6.734043625E0,-2.177403541E-3,1.665347815E-2,2.118320577E-2,2.703345385E-2
6.744005625E0,2.888994059E-3,1.977017708E-2,2.096269466E-2,2.895929481E-2
6.753966625E0,3.805528861E-3,2.074905671E-2,2.459314093E-2,3.240104914E-2
6.763928625E0,4.077970516E-3,1.831519417E-2,2.180667594E-2,2.876816464E-2
6.773890625E0,-9.106398793E-4,1.479691546E-2,2.918736450E-2,3.273652729E-2
6.783851625E0,-5.495153600E-4,1.440143678E-2,3.321326524E-2,3.620530813E-2
6.793813625E0,-4.177340306E-3,6.959160790E-3,3.415095434E-2,3.510224741E-2
6.803775625E0,-4.970429931E-3,4.217702895E-3,3.559625149E-2,3.618822062E-2
6.813736625E0,-4.515336361E-3,-1.548888395E-3,3.428570181E-2,3.461642192E-2
6.823698625E0,1.317252638E-3,-5.722594447E-3,3.504204005E-2,3.553066018E-2
6.833659625E0,6.835881621E-3,-8.758381009E-3,3.057966381E-2,3.253543229E-2
6.843621625E0,9.674811736E-3,-5.019568838E-3,2.576813102E-2,2.797846725E-2
6.853583625E0,1.539154630E-2,-4.425610881E-3,1.759247854E-2,2.379035583E-2
6.863544625E0,1.047721598E-2,1.957719680E-3,1.370932534E-2,1.736520436E-2
6.873506625E0,1.377314329E-2,4.688791465E-3,1.411093026E-2,2.026826570E-2
6.883468625E0,8.274515159E-3,1.182845980E-2,1.201821864E-2,1.878344062E-2
6.893429917E0,3.515472636E-3,1.311011892E-2,1.023732685E-2,1.700107723E-2
6.903391917E0,-5.245427601E-4,7.995517924E-3,5.039103329E-3,9.465517120E-3
6.913352917E0,-2.439402277E-3,6.579877809E-3,2.111520618E-3,7.328300947E-3
6.923314917E0,-8.722332306E-3,1.379784383E-2,1.484880224E-3,1.639098668E-2
6.933276917E0,-1.234013401E-2,2.969204821E-2,2.839975059E-5,3.215427562E-2
6.943237917E0,-1.670239307E-2,3.031842411E-2,4.277739674E-3,3.487801358E-2
6.953199917E0,-2.247516066E-2,3.203756735E-2,5.412776023E-3,3.950742604E-2
6.963161917E0,-1.762394607E-2,3.237871826E-2,1.024241932E-2,3.826084192E-2
6.973122917E0,-9.564824402E-3,2.659421042E-2,8.413910866E-3,2.948782443E-2
6.983084917E0,-1.414953731E-4,2.313289978E-2,8.446134627E-3,2.462698242E-2
6.993045917E0,1.505656354E-2,1.963822730E-2,1.090821996E-2,2.704347130E-2
7.003007917E0,2.115307190E-2,1.366582233E-2,7.937729359E-3,2.640482339E-2
7.012969917E0,2.948869765E-2,5.346616730E-3,7.824245840E-3,3.097399591E-2
7.022930917E0,3.556815907E-2,-6.300451700E-3,9.220274165E-3,3.728006286E-2
7.032892917E0,3.534979001E-2,-1.364549901E-2,8.417887613E-3,3.881582317E-2
7.042854917E0,3.360195458E-2,-1.357945148E-2,7.937451825E-3,3.710115895E-2
7.052815917E0,2.604675107E-2,-1.296256762E-2,8.444786072E-3,3.029481494E-2
7.062777917E0,1.901174523E-2,-6.585627794E-3,1.852929592E-3,2.020520473E-2
7.072738917E0,6.555101834E-3,6.734470371E-4,3.865789622E-4,6.600934348E-3
7.082700917E0,-2.871157136E-3,1.043180190E-2,-1.054190099E-3,1.087094067E-2
7.092662917E0,-1.348961610E-2,1.161596458E-2,-4.367675632E-3,1.832967447E-2
7.102623917E0,-1.896214485E-2,1.320427377E-2,-6.780765951E-3,2.408100019E-2
7.112585917E0,-1.725403592E-2,9.976739995E-3,-1.266529411E-2,2.361454576E-2
7.122547917E0,-1.632592455E-2,4.486633465E-3,-1.610290259E-2,2.336598305E-2
7.132508917E0,-7.282688282E-3,6.010881625E-3,-1.899136230E-2,2.120943395E-2
7.142470917E0,-3.493809141E-3,3.244123422E-3,-2.292831242E-2,2.341876490E-2
7.152431917E0,3.611095948E-3,2.266162075E-3,-2.378051914E-2,2.415964808E-2
7.162393917E0,9.083358571E-3,1.992655452E-3,-2.455176972E-2,2.625390400E-2
7.172355917E0,8.637217805E-3,4.282102920E-3,-1.988512278E-2,2.209877926E-2
7.182316917E0,1.271877810E-2,1.916416688E-3,-1.064635161E-2,1.669684917E-2
7.192278917E0,7.169836201E-3,4.421240650E-3,-5.595108494E-3,1.011232709E-2
7.202239917E0,6.031068973E-3,8.460190147E-3,4.822645336E-3,1.145454138E-2
7.212201917E0,4.876015708E-3,1.290212572E-2,1.619459502E-2,2.127217161E-2
7.222163917E0,5.020402605E-4,1.198147051E-2,2.165327780E-2,2.475221444E-2
7.232124917E0,-2.320625354E-3,8.364728652E-3,3.541381657E-2,3.646220497E-2
7.242086917E0,-7.663459517E-3,1.355602872E-2,4.747980461E-2,4.996825364E-2
7.252048917E0,-1.408587489E-2,9.981412441E-3,6.416423619E-2,6.644614113E-2
7.262009917E0,-1.179742068E-2,1.681135595E-2,7.615165412E-2,7.887252531E-2
7.271971917E0,-3.568604589E-3,2.978695557E-2,8.553661406E-2,9.064496680E-2
7.281932917E0,3.938579932E-3,5.272928998E-2,9.882178903E-2,1.120787064E-1
7.291894917E0,1.069578528E-2,1.273962408E-1,1.315504611E-1,1.834386159E-1
7.301856917E0,1.369503699E-2,1.801595837E-1,1.616511047E-1,2.424378462E-1
7.311817917E0,2.227674052E-2,2.116257995E-1,1.909479797E-1,2.859070883E-1
7.321779917E0,2.819881216E-2,2.337233871E-1,2.174826562E-1,3.205003907E-1
7.331741917E0,3.584226966E-2,2.634805143E-1,2.517647445E-1,3.661859313E-1
7.341702917E0,4.055606574E-2,2.826675177E-1,2.835160196E-1,4.024016071E-1
7.351664917E0,4.708875716E-2,2.838234901E-1,3.173088729E-1,4.283200269E-1
7.361625917E0,4.920623451E-2,2.725950778E-1,3.548826277E-1,4.501899703E-1
7.371587917E0,5.062004551E-2,2.478755414E-1,3.894451261E-1,4.644051887E-1
7.381549917E0,4.797898978E-2,2.245608866E-1,4.243466556E-1,4.824931703E-1
7.391510917E0,4.186658561E-2,1.804491878E-1,4.609693885E-1,4.967972398E-1
7.401472917E0,3.122272901E-2,1.343197823E-1,4.974778593E-1,5.162372354E-1
7.411434917E0,1.797518134E-2,7.841061056E-2,5.356675982E-1,5.416743549E-1
7.421395917E0,9.056507843E-4,1.792622730E-2,5.696729422E-1,5.699556394E-1
7.431357917E0,-1.682399586E-2,-4.715886340E-2,6.090205908E-1,6.110753515E-1
7.441318917E0,-3.523629159E-2,-1.072578877E-1,6.438537240E-1,6.536768840E-1
7.451280917E0,-5.543224886E-2,-1.677268595E-1,6.790351868E-1,7.016365287E-1
7.461242917E0,-7.014514506E-2,-2.199618369E-1,7.161892056E-1,7.524829097E-1
7.471203917E0,-8.030015230E-2,-2.641263008E-1,7.524023056E-1,8.014487175E-1
7.481165917E0,-8.769389242E-2,-3.006771207E-1,7.873145342E-1,8.473258673E-1
7.491127917E0,-9.243052453E-2,-3.230517805E-1,8.207898736E-1,8.869057849E-1
7.501088917E0,-9.652007371E-2,-3.341182768E-1,8.563976288E-1,9.243203158E-1
7.511050917E0,-8.713730425E-2,-3.338006735E-1,8.899894357E-1,9.545140099E-1
7.521011917E0,-8.088446409E-2,-3.202555776E-1,9.245061278E-1,9.817420801E-1
7.530973917E0,-7.258465886E-2,-2.929132879E-1,9.561372995E-1,1.002629175E0
7.540935917E0,-5.841504410E-2,-2.536843717E-1,9.908158779E-1,1.024443352E0
7.550896917E0,-4.489291459E-2,-2.082132697E-1,1.024558425E0,1.046464574E0
7.560858917E0,-3.685469553E-2,-1.571727246E-1,1.052726984E0,1.065033162E0
7.570820917E0,-2.392609045E-2,-9.590074420E-2,1.084059834E0,1.088556446E0
7.580781917E0,-1.601330563E-2,-3.460995108E-2,1.114013195E0,1.114665723E0
7.590743917E0,-9.839753620E-3,2.491978370E-2,1.144396424E0,1.144710004E0
7.600704917E0,-7.192838006E-3,8.693601191E-2,1.174201131E0,1.177437006E0
7.610666917E0,-1.018614881E-2,1.398100555E-1,1.203871012E0,1.212004960E0
7.620628917E0,-1.027376670E-2,1.891099662E-1,1.233123422E0,1.247582263E0
7.630589917E0,-1.203009859E-2,2.225785404E-1,1.265647769E0,1.285126533E0
7.640551917E0,-2.027817443E-2,2.447522879E-1,1.298532486E0,1.321552687E0
7.650513917E0,-2.671206929E-2,2.591260374E-1,1.329349518E0,1.354632784E0
7.660474917E0,-3.814475238E-2,2.550338209E-1,1.360380650E0,1.384605642E0
7.670436917E0,-4.640901089E-2,2.432607561E-1,1.391881824E0,1.413741349E0
7.680397917E0,-5.507626757E-2,2.188353091E-1,1.427361250E0,1.445089072E0
7.690359917E0,-6.890892982E-2,1.810500771E-1,1.456809163E0,1.469632780E0
7.700321917E0,-7.538493723E-2,1.394765377E-1,1.488518119E0,1.496937802E0
7.710282917E0,-8.847378939E-2,8.875856549E-2,1.523635864E0,1.528781195E0
7.720244917E0,-9.756395221E-2,3.597284853E-2,1.555728078E0,1.559199353E0
7.730206917E0,-1.077462211E-1,-1.580977812E-2,1.588080645E0,1.591810080E0
7.740167917E0,-1.190896928E-1,-6.881707162E-2,1.621835709E0,1.627657584E0
7.750129917E0,-1.296689957E-1,-1.185602024E-1,1.654926538E0,1.664227273E0
7.760090917E0,-1.379514337E-1,-1.570340842E-1,1.685594916E0,1.698505379E0
7.770052917E0,-1.445294321E-1,-1.877930611E-1,1.719091415E0,1.735347310E0
7.780014917E0,-1.546302736E-1,-2.036300898E-1,1.749076724E0,1.767666575E0
7.789975917E0,-1.578284651E-1,-2.147344053E-1,1.780344129E0,1.800179409E0
7.799937917E0,-1.584043056E-1,-2.153478712E-1,1.811548591E0,1.831167640E0
7.809899917E0,-1.594867855E-1,-1.998233348E-1,1.839933753E0,1.857611804E0
7.819860917E0,-1.524427235E-1,-1.715522856E-1,1.871027231E0,1.885049567E0
7.829822917E0,-1.435259134E-1,-1.322925389E-1,1.899745345E0,1.909746941E0
7.839783917E0,-1.321779042E-1,-8.620920777E-2,1.929736733E0,1.936178423E0
7.849745917E0,-1.176801771E-1,-3.651585430E-2,1.958538651E0,1.962410681E0
7.859707917E0,-1.059031412E-1,2.482526749E-2,1.986608982E0,1.989584634E0
7.869668917E0,-8.751072735E-2,8.352324367E-2,2.016029596E0,2.019655811E0
7.879630917E0,-7.581332326E-2,1.476007700E-1,2.040473700E0,2.047209458E0
7.889592917E0,-6.246367097E-2,2.024340928E-1,2.068746090E0,2.079565257E0
7.899558125E0,-5.293860659E-2,2.594654262E-1,2.096406698E0,2.113065510E0
7.909520125E0,-4.730947688E-2,3.071675599E-1,2.125099659E0,2.147705440E0
7.919481125E0,-4.328783974E-2,3.497078419E-1,2.152071953E0,2.180729947E0
7.929443125E0,-4.588067532E-2,3.783163428E-1,2.180616856E0,2.213666227E0
7.939405125E0,-5.390664563E-2,3.999105990E-1,2.208869934E0,2.245426641E0
7.949366125E0,-6.288032979E-2,4.043026268E-1,2.235179901E0,2.272321223E0
7.959328125E0,-7.259847224E-2,3.974985182E-1,2.263171673E0,2.298960989E0
7.969290125E0,-8.803065866E-2,3.817006648E-1,2.293063879E0,2.326281743E0
7.979251125E0,-1.030016169E-1,3.590236008E-1,2.320767641E0,2.350631771E0
7.989213125E0,-1.173919588E-1,3.201751411E-1,2.350112677E0,2.374725792E0
7.999174125E0,-1.300821900E-1,2.759040892E-1,2.380965471E0,2.400425174E0
8.009136125E0,-1.404706538E-1,2.310582101E-1,2.413312674E0,2.428414701E0
8.019098125E0,-1.525523365E-1,1.813425869E-1,2.440037966E0,2.451518432E0
8.029059125E0,-1.579452306E-1,1.298117638E-1,2.470323086E0,2.478768633E0
8.039021125E0,-1.593673527E-1,8.268953115E-2,2.498920679E0,2.505362264E0
8.048983125E0,-1.617041975E-1,4.344948009E-2,2.532123089E0,2.537653137E0
8.058944125E0,-1.573824137E-1,2.018949017E-3,2.560395956E0,2.565229181E0
8.068906125E0,-1.496518701E-1,-2.461946383E-2,2.590642452E0,2.595078056E0
8.078867125E0,-1.429153979E-1,-3.737307712E-2,2.618314266E0,2.622478056E0
8.088829125E0,-1.328263432E-1,-4.266225919E-2,2.649487019E0,2.653157434E0
8.098791125E0,-1.207973734E-1,-3.896819055E-2,2.674233913E0,2.677244395E0
8.108752125E0,-1.084995791E-1,-2.176181972E-2,2.703505754E0,2.705769595E0
8.118714125E0,-9.690524638E-2,2.949118149E-3,2.730243206E0,2.731963998E0
8.128676125E0,-8.615996689E-2,4.242614657E-2,2.755085945E0,2.756759344E0
8.138637125E0,-7.560932636E-2,8.726658672E-2,2.782552242E0,2.784946895E0
8.148599125E0,-6.288707256E-2,1.370683312E-1,2.808653593E0,2.812699329E0
8.158560125E0,-5.098434165E-2,1.902215630E-1,2.834362030E0,2.841195481E0
8.168522125E0,-4.472521320E-2,2.409463227E-1,2.861046314E0,2.871522503E0
8.178484125E0,-3.697115183E-2,2.952234149E-1,2.884729624E0,2.900032540E0
8.188445125E0,-3.528768569E-2,3.413529992E-1,2.907428265E0,2.927611006E0
8.198407125E0,-3.013660014E-2,3.798663020E-1,2.933243752E0,2.957892075E0
8.208369125E0,-3.263964877E-2,4.127662778E-1,2.959223747E0,2.988050624E0
8.218330125E0,-3.341036662E-2,4.344798326E-1,2.983079672E0,3.014739343E0
8.228292125E0,-3.649205342E-2,4.466850162E-1,3.013193369E0,3.046340994E0
8.238253125E0,-4.110704735E-2,4.455449283E-1,3.036408424E0,3.069197972E0
8.248215125E0,-5.079669133E-2,4.376297593E-1,3.060737848E0,3.092283345E0
8.258177125E0,-6.177317724E-2,4.159635901E-1,3.087577105E0,3.116083120E0
8.268138125E0,-7.468554378E-2,3.802301586E-1,3.116109371E0,3.140109953E0
8.278100125E0,-8.765140921E-2,3.468927145E-1,3.141795874E0,3.162103515E0
8.288062125E0,-1.054510921E-1,2.984112799E-1,3.168726683E0,3.184493369E0
8.298023125E0,-1.234266311E-1,2.510555089E-1,3.193759441E0,3.205988517E0
8.307985125E0,-1.379976720E-1,1.974442750E-1,3.220582008E0,3.229578312E0
8.317947125E0,-1.530895382E-1,1.447688192E-1,3.247160673E0,3.253989375E0
8.327908125E0,-1.631638408E-1,9.382135421E-2,3.273940802E0,3.279346468E0
8.337870125E0,-1.729922444E-1,5.112848803E-2,3.299303293E0,3.304231024E0
8.347831125E0,-1.817347109E-1,1.143944543E-2,3.328209639E0,3.333187328E0
8.357793125E0,-1.814010143E-1,-1.804334484E-2,3.355046034E0,3.359994908E0
8.367755125E0,-1.822073609E-1,-3.869294003E-2,3.380076408E0,3.385205044E0
8.377716125E0,-1.786898673E-1,-5.025159195E-2,3.404091597E0,3.409148704E0
8.387678125E0,-1.716445386E-1,-4.784266278E-2,3.432597160E0,3.437218939E0
8.397640125E0,-1.604946852E-1,-3.631064296E-2,3.458033085E0,3.461945959E0
8.407601125E0,-1.513187885E-1,-1.374391466E-2,3.479462147E0,3.482778072E0
8.417563125E0,-1.407745332E-1,1.365948003E-2,3.504353762E0,3.507206771E0
8.427524125E0,-1.281261146E-1,5.085013807E-2,3.530168056E0,3.532858410E0
8.437486125E0,-1.214879230E-1,9.640776366E-2,3.549702644E0,3.553089168E0
8.447448125E0,-1.145385131E-1,1.456125975E-1,3.575523376E0,3.580319750E0
8.457409125E0,-1.096787751E-1,1.955015957E-1,3.598232985E0,3.605208859E0
8.467371125E0,-1.089953110E-1,2.435300797E-1,3.619710207E0,3.629530116E0
8.477333125E0,-1.135565042E-1,2.894869447E-1,3.641841650E0,3.655093484E0
8.487294125E0,-1.242606044E-1,3.343682587E-1,3.662909269E0,3.680237376E0
8.497256125E0,-1.313834935E-1,3.695933521E-1,3.685181618E0,3.705998438E0
8.507217125E0,-1.470991671E-1,3.960519433E-1,3.706851959E0,3.730850674E0
8.517179125E0,-1.621822566E-1,4.144027233E-1,3.725375891E0,3.751860636E0
8.527141125E0,-1.775973439E-1,4.214628637E-1,3.750570536E0,3.778352962E0
8.537102125E0,-1.957888603E-1,4.208638966E-1,3.770245790E0,3.798712021E0
8.547064125E0,-2.092983425E-1,4.071298540E-1,3.794586420E0,3.822099765E0
8.557026125E0,-2.289777696E-1,3.850687444E-1,3.816610575E0,3.842814728E0
8.566987125E0,-2.467811704E-1,3.538402319E-1,3.842021227E0,3.866164891E0
8.576949125E0,-2.574583292E-1,3.226990998E-1,3.863493919E0,3.885486426E0
8.586910125E0,-2.723447382E-1,2.794224024E-1,3.887668848E0,3.907200738E0
8.596872125E0,-2.822226882E-1,2.362030596E-1,3.913700819E0,3.930966247E0
8.606834125E0,-2.888804674E-1,1.943538040E-1,3.938560486E0,3.953920083E0
8.616795125E0,-2.968363762E-1,1.554884315E-1,3.963554859E0,3.977694761E0
8.626757125E0,-2.994475663E-1,1.166655347E-1,3.985521078E0,3.998456947E0
8.636719125E0,-3.022137880E-1,9.186565131E-2,4.010513306E0,4.022932941E0
8.646680125E0,-3.028864264E-1,6.865641475E-2,4.035333157E0,4.047266680E0
8.656642125E0,-2.975015044E-1,5.434139818E-2,4.057992458E0,4.069245990E0
8.666603125E0,-2.917357385E-1,5.334474519E-2,4.083610535E0,4.094365690E0
8.676565125E0,-2.871340513E-1,5.880635604E-2,4.105057716E0,4.115507624E0
8.686527125E0,-2.788228095E-1,7.644207031E-2,4.126625538E0,4.136740731E0
8.696488125E0,-2.694247961E-1,1.026936471E-1,4.151301384E0,4.161302547E0
8.706450125E0,-2.571166754E-1,1.401853710E-1,4.170596123E0,4.180865095E0
8.716412125E0,-2.437121868E-1,1.823453456E-1,4.191610813E0,4.202647578E0
8.726373125E0,-2.281120867E-1,2.301107198E-1,4.215607166E0,4.228040900E0
8.736335125E0,-2.159259915E-1,2.812783122E-1,4.230869293E0,4.245703299E0
8.746297125E0,-2.081579566E-1,3.298513889E-1,4.252909660E0,4.270757808E0
8.756258125E0,-1.909651160E-1,3.764343262E-1,4.275375843E0,4.296162133E0
8.766220125E0,-1.860945225E-1,4.259557426E-1,4.297762871E0,4.322827218E0
8.776181125E0,-1.786797494E-1,4.672198296E-1,4.314558983E0,4.343459455E0
8.786143125E0,-1.754989624E-1,5.033526421E-1,4.337194920E0,4.369831065E0
8.796105125E0,-1.760872453E-1,5.266706944E-1,4.355009556E0,4.390272995E0
8.806066125E0,-1.811528802E-1,5.492414832E-1,4.379294872E0,4.417318887E0
8.816028125E0,-1.893817782E-1,5.522684455E-1,4.398828983E0,4.437404908E0
8.825990125E0,-2.012664378E-1,5.500366688E-1,4.419528961E0,4.458170561E0
8.835951125E0,-2.107459605E-1,5.391755104E-1,4.438404560E0,4.475998115E0
8.845913125E0,-2.274233699E-1,5.133810639E-1,4.461243629E0,4.496440395E0
8.855874125E0,-2.403202504E-1,4.874887764E-1,4.481953621E0,4.514787635E0
8.865836125E0,-2.530800402E-1,4.508547783E-1,4.506659508E0,4.536220834E0
8.875798125E0,-2.673929334E-1,4.083584547E-1,4.529428482E0,4.555653409E0
8.885759125E0,-2.754520476E-1,3.632439673E-1,4.551674843E0,4.574446839E0
8.895721375E0,-2.820063531E-1,3.176389337E-1,4.574792385E0,4.594469223E0
8.905683375E0,-2.833600938E-1,2.750594318E-1,4.598850727E0,4.615774978E0
8.915644375E0,-2.846850157E-1,2.306823879E-1,4.621403217E0,4.635906343E0
8.925606375E0,-2.799687088E-1,1.970873177E-1,4.647064686E0,4.659660512E0
8.935567375E0,-2.730301023E-1,1.678426117E-1,4.670462132E0,4.681445621E0
8.945529375E0,-2.627030909E-1,1.433521360E-1,4.694118023E0,4.703648240E0
8.955491375E0,-2.492954135E-1,1.331698000E-1,4.718784332E0,4.727241053E0
8.965452375E0,-2.394368052E-1,1.235607043E-1,4.739029408E0,4.746682732E0
8.975414375E0,-2.265138179E-1,1.333038807E-1,4.761959076E0,4.769206713E0
8.985376375E0,-2.112103850E-1,1.485483944E-1,4.785728931E0,4.792690044E0
8.995337375E0,-2.013231367E-1,1.727991402E-1,4.806450367E0,4.813767306E0
9.005299375E0,-1.845734268E-1,2.002361417E-1,4.828843117E0,4.836516071E0
9.015261375E0,-1.768880785E-1,2.328867614E-1,4.851821899E0,4.860627673E0
9.025222375E0,-1.679019481E-1,2.749712169E-1,4.872871399E0,4.883510613E0
9.035184375E0,-1.626185030E-1,3.112413287E-1,4.892971516E0,4.905556665E0
9.045145375E0,-1.612723321E-1,3.568749726E-1,4.913808346E0,4.929389513E0
9.055107375E0,-1.670314223E-1,3.920566738E-1,4.933089733E0,4.951462637E0
9.065069375E0,-1.697070897E-1,4.216023088E-1,4.956041813E0,4.976836290E0
9.075030375E0,-1.767996252E-1,4.484128952E-1,4.978568077E0,5.001846892E0
9.084992375E0,-1.934905499E-1,4.665446579E-1,5.003381252E0,5.028809647E0
9.094954375E0,-2.088743001E-1,4.754121900E-1,5.025977135E0,5.052731082E0
9.104915375E0,-2.273784131E-1,4.800267518E-1,5.048698425E0,5.076562066E0
9.114877375E0,-2.412217855E-1,4.766549170E-1,5.074199200E0,5.102243171E0
9.124838375E0,-2.622714043E-1,4.577766061E-1,5.098458290E0,5.125682652E0
9.134800375E0,-2.794557214E-1,4.412674010E-1,5.125934601E0,5.152476875E0
9.144762375E0,-3.009532392E-1,4.070993960E-1,5.150039196E0,5.174862944E0
9.154723375E0,-3.165236712E-1,3.719501793E-1,5.176335812E0,5.199325591E0
9.164685375E0,-3.324054182E-1,3.332404494E-1,5.202724457E0,5.223972084E0
9.174647375E0,-3.467643857E-1,2.928698659E-1,5.228633881E0,5.248297872E0
9.184608375E0,-3.607258499E-1,2.467932403E-1,5.256514072E0,5.274653565E0
9.194570375E0,-3.702532947E-1,2.146126628E-1,5.283284187E0,5.300588449E0
9.204531375E0,-3.743130267E-1,1.799057275E-1,5.309533119E0,5.325750488E0
9.214493375E0,-3.767639399E-1,1.519079208E-1,5.337204933E0,5.352642673E0
9.224455375E0,-3.783514202E-1,1.318346411E-1,5.364405632E0,5.379347354E0
9.234416375E0,-3.754714727E-1,1.232541949E-1,5.388021469E0,5.402494403E0
9.244378375E0,-3.703669906E-1,1.191244349E-1,5.414790154E0,5.428748912E0
9.254340375E0,-3.590104878E-1,1.266835481E-1,5.441198349E0,5.454500594E0
9.264301375E0,-3.497918248E-1,1.441509873E-1,5.462323666E0,5.475409908E0
9.274263375E0,-3.397671580E-1,1.686800271E-1,5.487380028E0,5.500475820E0
9.284225375E0,-3.300137520E-1,2.003884166E-1,5.510845184E0,5.524353287E0
9.294186375E0,-3.239054978E-1,2.356484085E-1,5.530071735E0,5.544559346E0
9.304148375E0,-3.113788962E-1,2.787786424E-1,5.555297375E0,5.570996614E0
9.314109375E0,-3.022274673E-1,3.261544406E-1,5.576489449E0,5.594189193E0
9.324071375E0,-2.959248126E-1,3.746740520E-1,5.598498344E0,5.618819792E0
9.334033375E0,-2.912078202E-1,4.234756827E-1,5.621911049E0,5.645353620E0
9.343994375E0,-2.857696414E-1,4.674257934E-1,5.641654491E0,5.668193412E0
9.353956375E0,-2.856988013E-1,5.047649145E-1,5.663491249E0,5.693113784E0
9.363918375E0,-2.883580923E-1,5.424745083E-1,5.684238911E0,5.717342125E0
9.373879375E0,-2.968895137E-1,5.678488612E-1,5.705501556E0,5.741371241E0
9.383841375E0,-3.018207252E-1,5.852769613E-1,5.726076603E0,5.763818017E0
9.393803375E0,-3.098339140E-1,5.915729403E-1,5.742083073E0,5.780784861E0
9.403764375E0,-3.208670020E-1,5.909945369E-1,5.764080524E0,5.803176240E0
9.413726375E0,-3.342456520E-1,5.852218866E-1,5.788310051E0,5.827412638E0
9.423687375E0,-3.461231291E-1,5.694382191E-1,5.806174755E0,5.844290067E0
9.433649375E0,-3.547232747E-1,5.384230614E-1,5.829506874E0,5.865055702E0
9.443611375E0,-3.641458154E-1,5.136979222E-1,5.849513054E0,5.883306103E0
9.453572375E0,-3.724788427E-1,4.791761637E-1,5.871602535E0,5.902886295E0
9.463534375E0,-3.775628805E-1,4.419406056E-1,5.893397331E0,5.921992682E0
9.473496375E0,-3.799251020E-1,4.050598145E-1,5.919894695E0,5.945886792E0
9.483457375E0,-3.773269057E-1,3.662074506E-1,5.938082695E0,5.961317772E0
9.493419375E0,-3.752664328E-1,3.336426020E-1,5.960488796E0,5.981602542E0
9.503380375E0,-3.678185344E-1,3.073106110E-1,5.983972073E0,6.003136851E0
9.513342375E0,-3.605049849E-1,2.820955217E-1,6.004376411E0,6.021800214E0
9.523304375E0,-3.462350667E-1,2.701552212E-1,6.027169228E0,6.043147480E0
9.533265375E0,-3.332798779E-1,2.587206662E-1,6.047542572E0,6.062242409E0
9.543227375E0,-3.163806498E-1,2.567699254E-1,6.073416233E0,6.087069266E0
9.553189375E0,-3.004322946E-1,2.628789246E-1,6.093090534E0,6.106154039E0
9.563150375E0,-2.852625847E-1,2.800678611E-1,6.110264778E0,6.123328213E0
9.573112375E0,-2.652300298E-1,3.002381325E-1,6.131696224E0,6.144769198E0
9.583074375E0,-2.533482909E-1,3.254584074E-1,6.153908730E0,6.167714421E0
9.593035375E0,-2.460136712E-1,3.539215028E-1,6.171277523E0,6.186311455E0
9.602997375E0,-2.372618318E-1,3.871318996E-1,6.188432693E0,6.205067565E0
9.612958375E0,-2.336228937E-1,4.210842848E-1,6.207954407E0,6.226603372E0
9.622920375E0,-2.332887501E-1,4.489150047E-1,6.228365898E0,6.248879106E0
9.632882375E0,-2.328439951E-1,4.750565886E-1,6.245246887E0,6.267615477E0
9.642843375E0,-2.394009978E-1,4.987522364E-1,6.261076927E0,6.285471416E0
9.652805375E0,-2.533610463E-1,5.152576566E-1,6.279729366E0,6.305924451E0
9.662767375E0,-2.659654319E-1,5.260673761E-1,6.298833847E0,6.326356955E0
9.672728375E0,-2.818290889E-1,5.288935304E-1,6.316203117E0,6.344570736E0
9.682690375E0,-2.977817059E-1,5.202078223E-1,6.333432674E0,6.361734006E0
9.692651375E0,-3.143279254E-1,5.060557723E-1,6.351239681E0,6.379117492E0
9.702613375E0,-3.372199237E-1,4.883097708E-1,6.369214535E0,6.396800567E0
9.712575375E0,-3.529448211E-1,4.626515508E-1,6.389382839E0,6.415826492E0
9.722536375E0,-3.686575592E-1,4.325691164E-1,6.407099724E0,6.432258647E0
9.732498375E0,-3.860674500E-1,3.964356184E-1,6.429179668E0,6.452949751E0
9.742460375E0,-4.003216028E-1,3.593226075E-1,6.446203232E0,6.468609296E0
9.752421375E0,-4.088735580E-1,3.183176517E-1,6.466073036E0,6.486802311E0
9.762383375E0,-4.159247577E-1,2.859449089E-1,6.487730026E0,6.507334231E0
9.772344375E0,-4.227917194E-1,2.518931925E-1,6.506136894E0,6.524723772E0
9.782306375E0,-4.252485633E-1,2.254239321E-1,6.526160717E0,6.543884626E0
9.792268375E0,-4.264176786E-1,2.073913962E-1,6.546885014E0,6.564034324E0
9.802229375E0,-4.210509658E-1,1.914860010E-1,6.561513424E0,6.577796684E0
9.812191375E0,-4.138617814E-1,1.864595562E-1,6.582964420E0,6.598596010E0
9.822153375E0,-4.085311294E-1,1.912128478E-1,6.601418972E0,6.616811353E0
9.832114375E0,-4.000308514E-1,1.995818317E-1,6.619552135E0,6.634630967E0
9.842076375E0,-3.870695531E-1,2.193240821E-1,6.637164593E0,6.652058307E0
9.852038375E0,-3.790904582E-1,2.464928478E-1,6.652552605E0,6.667902553E0
9.861999375E0,-3.700411320E-1,2.806652486E-1,6.670839310E0,6.686987402E0
9.871961375E0,-3.618095815E-1,3.152799308E-1,6.688051224E0,6.705246959E0
9.881922375E0,-3.539357781E-1,3.543629348E-1,6.702292442E0,6.720979661E0
9.891884375E0,-3.454165757E-1,3.978025615E-1,6.721819401E0,6.742433948E0
9.901842375E0,-3.418078125E-1,4.363546073E-1,6.735169411E0,6.757939399E0
9.911803375E0,-3.413050175E-1,4.772602320E-1,6.748972893E0,6.774429980E0
9.921765375E0,-3.416229784E-1,5.132957101E-1,6.766082764E0,6.794119127E0
9.931727375E0,-3.413111269E-1,5.434933305E-1,6.781240940E0,6.811542188E0
9.941688375E0,-3.421595395E-1,5.708777308E-1,6.796483517E0,6.828994269E0
9.951650375E0,-3.546518981E-1,5.858780146E-1,6.813754082E0,6.848085550E0
9.961612375E0,-3.639000058E-1,5.958815217E-1,6.830006599E0,6.865601805E0
9.971573375E0,-3.724274635E-1,5.940783024E-1,6.844513416E0,6.880333942E0
9.981535375E0,-3.837580383E-1,5.877761245E-1,6.861727238E0,6.897539539E0
9.991496375E0,-3.949776888E-1,5.763970017E-1,6.874221325E0,6.909642516E0
1.000145838E1,-4.039772451E-1,5.552587509E-1,6.893740654E0,6.927854653E0
1.001142037E1,-4.147196412E-1,5.306412578E-1,6.908858299E0,6.941606120E0
1.002138138E1,-4.220660329E-1,5.025424361E-1,6.926863194E0,6.957882030E0
1.003134337E1,-4.284312427E-1,4.733136892E-1,6.944282055E0,6.973566694E0
1.004130538E1,-4.322772622E-1,4.411678016E-1,6.963459015E0,6.990797817E0
1.005126637E1,-4.265964627E-1,4.066124856E-1,6.978037834E0,7.002880141E0
1.006122837E1,-4.201994836E-1,3.798081875E-1,6.995820045E0,7.018712131E0
1.007119038E1,-4.125269055E-1,3.531113267E-1,7.014146328E0,7.035134311E0
1.008115137E1,-4.020522237E-1,3.295448720E-1,7.032923222E0,7.052109958E0
1.009111338E1,-3.867299855E-1,3.146213293E-1,7.051136017E0,7.068738628E0
1.010107437E1,-3.697369397E-1,3.051323891E-1,7.066912651E0,7.083153648E0
1.011103638E1,-3.539113700E-1,2.997634411E-1,7.086313248E0,7.101474975E0
1.012099838E1,-3.370252550E-1,3.063977957E-1,7.104040146E0,7.118627117E0
1.013095938E1,-3.243057132E-1,3.171439171E-1,7.120636940E0,7.135070069E0
1.014092138E1,-3.135984838E-1,3.332912326E-1,7.135274887E0,7.149935298E0
1.015088337E1,-3.020419776E-1,3.573819101E-1,7.152590752E0,7.167880136E0
1.016084438E1,-2.955189049E-1,3.780838251E-1,7.164350033E0,7.180403206E0
1.017080637E1,-2.959695160E-1,4.026067257E-1,7.178122997E0,7.195494416E0
1.018076838E1,-2.962667346E-1,4.265354574E-1,7.192359924E0,7.211085061E0
1.019072937E1,-2.965242565E-1,4.511625171E-1,7.208135128E0,7.228325275E0
1.020069137E1,-3.070324063E-1,4.704371095E-1,7.218944073E0,7.240768847E0
1.021065238E1,-3.160421550E-1,4.841364026E-1,7.234364510E0,7.257430713E0
1.022061437E1,-3.280025125E-1,4.936730564E-1,7.249434948E0,7.273623980E0
1.023057638E1,-3.394317329E-1,5.029216409E-1,7.259613514E0,7.284925013E0
1.024053737E1,-3.518174589E-1,4.977073967E-1,7.276452541E0,7.301934659E0
1.025049938E1,-3.678731322E-1,4.902366996E-1,7.289143085E0,7.314866341E0
1.026046138E1,-3.825739324E-1,4.764621854E-1,7.304475784E0,7.329989462E0
1.027042238E1,-4.026629627E-1,4.535638094E-1,7.319220066E0,7.344306636E0
1.028038438E1,-4.164357483E-1,4.280321896E-1,7.334217072E0,7.358489678E0
1.029034537E1,-4.367215633E-1,4.030392170E-1,7.348588467E0,7.372578842E0
1.030030738E1,-4.510063827E-1,3.756688237E-1,7.362255573E0,7.385617168E0
1.031026937E1,-4.672327638E-1,3.422797322E-1,7.379942894E0,7.402635949E0
1.032023038E1,-4.785895348E-1,3.132278323E-1,7.393296242E0,7.415388657E0
1.033019237E1,-4.871446788E-1,2.867762446E-1,7.407883644E0,7.429420612E0
1.034015437E1,-4.928513169E-1,2.634975612E-1,7.423815727E0,7.444821914E0
1.035011538E1,-4.982628822E-1,2.440548092E-1,7.437932014E0,7.458596470E0
1.036007737E1,-4.971836209E-1,2.340965122E-1,7.454958439E0,7.475185486E0
1.037003938E1,-4.923009574E-1,2.253062278E-1,7.467298985E0,7.486900377E0
1.038000037E1,-4.829099774E-1,2.248063385E-1,7.482960224E0,7.501895337E0
1.038996238E1,-4.762856364E-1,2.284868211E-1,7.498829365E0,7.517412858E0
1.039992337E1,-4.640136659E-1,2.419935614E-1,7.511016369E0,7.529225489E0
1.040988538E1,-4.513032138E-1,2.627204061E-1,7.527632713E0,7.545724012E0
1.041984738E1,-4.386227727E-1,2.888796926E-1,7.538588047E0,7.556861197E0
1.042980837E1,-4.275219142E-1,3.232762814E-1,7.553452015E0,7.572444776E0
1.043977038E1,-4.175474346E-1,3.560094535E-1,7.568500519E0,7.588365351E0
1.044973237E1,-4.094242752E-1,3.955856264E-1,7.581157207E0,7.602503590E0
1.045969338E1,-4.082126915E-1,4.312247336E-1,7.592678547E0,7.615862386E0
1.046965537E1,-4.030184746E-1,4.686988890E-1,7.603892803E0,7.628976884E0
1.047961737E1,-4.043917954E-1,5.043699741E-1,7.615656853E0,7.643045930E0
1.048957838E1,-4.102278352E-1,5.330601931E-1,7.626357555E0,7.655963010E0
1.049954037E1,-4.137190282E-1,5.574365854E-1,7.637053013E0,7.668538172E0
1.050950238E1,-4.235143960E-1,5.784811378E-1,7.652416229E0,7.685927336E0
1.051946337E1,-4.339696467E-1,5.883655548E-1,7.664326668E0,7.699117284E0
1.052942538E1,-4.415423274E-1,5.892566442E-1,7.673381329E0,7.708629193E0
1.053938637E1,-4.513722956E-1,5.911387801E-1,7.687988758E0,7.723882000E0
1.054934838E1,-4.593846798E-1,5.767571926E-1,7.701500893E0,7.736717595E0
1.055931038E1,-4.674257636E-1,5.668290257E-1,7.712498188E0,7.747413135E0
1.056927137E1,-4.759249985E-1,5.401707888E-1,7.727107048E0,7.760571655E0
1.057923338E1,-4.809686244E-1,5.145844817E-1,7.739760399E0,7.771744916E0
1.058919537E1,-4.820426702E-1,4.847546220E-1,7.755198479E0,7.785271712E0
1.059915638E1,-4.853112996E-1,4.531344473E-1,7.766485214E0,7.794815615E0
1.060911837E1,-4.864425957E-1,4.199253619E-1,7.784844875E0,7.811323412E0
1.061908038E1,-4.846306145E-1,3.897830546E-1,7.797564030E0,7.822327177E0
1.062904138E1,-4.801437259E-1,3.660665452E-1,7.811358452E0,7.834657847E0
1.063900337E1,-4.748625159E-1,3.426899314E-1,7.827469349E0,7.849344381E0
1.064896438E1,-4.690224826E-1,3.229878545E-1,7.838222027E0,7.858882095E0
1.065892637E1,-4.607611895E-1,3.095504045E-1,7.851889610E0,7.871486059E0
1.066888838E1,-4.545717239E-1,3.022613525E-1,7.867088795E0,7.886005547E0
1.067884937E1,-4.443684220E-1,3.003248572E-1,7.878365040E0,7.896600155E0
1.068881138E1,-4.333370924E-1,3.028029203E-1,7.894255638E0,7.911936724E0
1.069877338E1,-4.258829951E-1,3.132345378E-1,7.906931400E0,7.924585565E0
1.070873437E1,-4.184722304E-1,3.272217214E-1,7.917438984E0,7.935239954E0
1.071869638E1,-4.117975235E-1,3.434284925E-1,7.928799152E0,7.946909860E0
1.072865837E1,-4.101202488E-1,3.686249256E-1,7.940075397E0,7.959200982E0
1.073861938E1,-4.093973041E-1,3.804686069E-1,7.952927113E0,7.972541136E0
1.074858137E1,-4.117752314E-1,4.047201574E-1,7.963804722E0,7.984706813E0
1.075854238E1,-4.154264331E-1,4.248099625E-1,7.973580360E0,7.995687987E0
1.076850438E1,-4.264852107E-1,4.407458007E-1,7.984016418E0,8.007537990E0
1.077846637E1,-4.397625327E-1,4.563998282E-1,7.994239330E0,8.019323809E0
1.078842738E1,-4.540589154E-1,4.646748006E-1,8.007605553E0,8.033918026E0
1.079838937E1,-4.697627723E-1,4.693984687E-1,8.016600609E0,8.044059753E0
1.080835138E1,-4.890051782E-1,4.726086557E-1,8.024662018E0,8.053426942E0
1.081831237E1,-5.076342821E-1,4.660467803E-1,8.037888527E0,8.067375294E0
1.082827438E1,-5.255605578E-1,4.570298493E-1,8.046827316E0,8.076912779E0
1.083823638E1,-5.451300144E-1,4.451422095E-1,8.055341721E0,8.086027984E0
1.084819737E1,-5.623122454E-1,4.282479286E-1,8.068795204E0,8.099694278E0
1.085815938E1,-5.784911513E-1,4.068272114E-1,8.079771996E0,8.110664331E0
1.086812037E1,-5.890731812E-1,3.857568204E-1,8.092494011E0,8.123070531E0
1.087808238E1,-5.970439911E-1,3.662745655E-1,8.102744102E0,8.132962595E0
1.088804437E1,-6.050143242E-1,3.453319967E-1,8.116190910E0,8.146032864E0
1.089800542E1,-6.052060127E-1,3.317379653E-1,8.126431465E0,8.155685916E0
1.090796742E1,-6.030928493E-1,3.185923398E-1,8.138182640E0,8.166715297E0
1.091792942E1,-5.998156071E-1,3.093618751E-1,8.151201248E0,8.179093184E0
1.092789042E1,-5.922626257E-1,3.117821813E-1,8.162446976E0,8.189842720E0
1.093785242E1,-5.848424435E-1,3.113760054E-1,8.172344208E0,8.199158832E0
1.094781442E1,-5.698264241E-1,3.217311800E-1,8.187541962E0,8.213650618E0
1.095777542E1,-5.571407676E-1,3.410861492E-1,8.197517395E0,8.223505155E0
1.096773742E1,-5.446279049E-1,3.612614572E-1,8.206780434E0,8.232762263E0
1.097769942E1,-5.324304104E-1,3.849461377E-1,8.217988014E0,8.244209645E0
1.098766042E1,-5.199372768E-1,4.148377180E-1,8.229883194E0,8.256718627E0
1.099762242E1,-5.100045800E-1,4.447682202E-1,8.239100456E0,8.266843398E0
1.100758342E1,-5.030055642E-1,4.784284234E-1,8.245225906E0,8.274397779E0
1.101754542E1,-4.950817227E-1,5.148417950E-1,8.258181572E0,8.289012659E0
1.102750742E1,-4.912912548E-1,5.434747934E-1,8.265604019E0,8.298008300E0
1.103746842E1,-4.867260456E-1,5.729844570E-1,8.277127266E0,8.311200227E0
1.104743042E1,-4.883441925E-1,5.966591835E-1,8.283892632E0,8.319697072E0
1.105739242E1,-4.899474680E-1,6.207423210E-1,8.294357300E0,8.331970509E0
1.106735342E1,-4.966810048E-1,6.319158673E-1,8.303623199E0,8.342431775E0
1.107731542E1,-5.022366047E-1,6.379375458E-1,8.311034203E0,8.350598508E0
1.108727742E1,-5.089190006E-1,6.407101750E-1,8.320278168E0,8.360414874E0
1.109723842E1,-5.155156255E-1,6.330943704E-1,8.332688332E0,8.372589783E0
1.110720042E1,-5.250196457E-1,6.252745390E-1,8.342661858E0,8.382518759E0
1.111716142E1,-5.301049352E-1,6.051509380E-1,8.348760605E0,8.387432416E0
1.112712342E1,-5.387378335E-1,5.832419395E-1,8.360988617E0,8.398603471E0
1.113708542E1,-5.455020070E-1,5.547813177E-1,8.371913910E0,8.407990085E0
1.114704642E1,-5.505620241E-1,5.268290043E-1,8.384710312E0,8.419265666E0
1.115700842E1,-5.561841726E-1,4.980330765E-1,8.394650459E0,8.427783464E0
1.116697042E1,-5.574031472E-1,4.669779539E-1,8.405629158E0,8.437023659E0
1.117693142E1,-5.582075119E-1,4.402744770E-1,8.417033195E0,8.447004502E0
1.118689342E1,-5.587875843E-1,4.121355116E-1,8.427694321E0,8.456248034E0
1.119685542E1,-5.575829148E-1,3.905859888E-1,8.438765526E0,8.466180941E0
1.120681642E1,-5.527862906E-1,3.745516539E-1,8.447394371E0,8.473743758E0
1.121677842E1,-5.498774052E-1,3.604528904E-1,8.459863663E0,8.485374749E0
1.122673942E1,-5.450168848E-1,3.547848761E-1,8.471287727E0,8.496212772E0
1.123670142E1,-5.353870988E-1,3.553355038E-1,8.483687401E0,8.507987693E0
1.124666342E1,-5.280213356E-1,3.617531955E-1,8.491137505E0,8.515226834E0
1.125662442E1,-5.239427686E-1,3.685129583E-1,8.501163483E0,8.525262365E0
1.126658642E1,-5.165460706E-1,3.821206391E-1,8.507968903E0,8.532196134E0
1.127654842E1,-5.145324469E-1,4.020118713E-1,8.518475533E0,8.543464320E0
1.128650942E1,-5.087392926E-1,4.198864698E-1,8.528032303E0,8.553505438E0
1.129647142E1,-5.106126070E-1,4.418685436E-1,8.535595894E0,8.562264321E0
1.130643342E1,-5.143951178E-1,4.669150412E-1,8.544414520E0,8.572609374E0
1.131639442E1,-5.160911083E-1,4.922260642E-1,8.553043365E0,8.582726102E0
1.132635642E1,-5.235276818E-1,5.135923624E-1,8.557555199E0,8.588923642E0
1.133631842E1,-5.327411890E-1,5.350817442E-1,8.565765381E0,8.598980300E0
1.134627942E1,-5.452945232E-1,5.488974452E-1,8.573176384E0,8.608018810E0
1.135624142E1,-5.571140647E-1,5.599963069E-1,8.582098007E0,8.618374449E0
1.136620242E1,-5.723590851E-1,5.674962997E-1,8.586102486E0,8.623850814E0
1.137616442E1,-5.852665305E-1,5.702456236E-1,8.596861839E0,8.635609444E0
1.138612642E1,-5.988209844E-1,5.702254176E-1,8.606472015E0,8.646103408E0
1.139608742E1,-6.085801125E-1,5.687239170E-1,8.611824036E0,8.652013053E0
1.140604942E1,-6.220820546E-1,5.604678392E-1,8.620491028E0,8.661060896E0
1.141601142E1,-6.269615293E-1,5.474625230E-1,8.627118111E0,8.667177330E0
1.142597242E1,-6.293887496E-1,5.355712771E-1,8.640423775E0,8.679855402E0
1.143593442E1,-6.310259700E-1,5.252422690E-1,8.646131516E0,8.685025239E0
1.144589642E1,-6.276869178E-1,5.126748085E-1,8.655243874E0,8.693104902E0
1.145585742E1,-6.254068017E-1,5.000245571E-1,8.667114258E0,8.704023655E0
1.146581942E1,-6.139256954E-1,4.972911179E-1,8.673962593E0,8.709869705E0
1.147578142E1,-6.608510017E-1,9.215158820E-1,8.665178299E0,8.739063481E0
1.148574242E1,-6.136422157E-1,5.831777453E-1,8.698170662E0,8.739269187E0
1.149570442E1,-5.565551519E-1,-5.338017642E-2,8.715334892E0,8.733250561E0
1.150566542E1,-5.382299423E-1,4.595478475E-1,8.732707024E0,8.761338234E0
1.151562742E1,-4.524961710E-1,5.286356807E-1,8.752243042E0,8.779861430E0
1.152558942E1,-4.142659605E-1,5.267035365E-1,8.761836052E0,8.787423052E0
1.153555042E1,-3.982560039E-1,5.701290369E-1,8.781554222E0,8.809049297E0
1.154551242E1,-4.168328643E-1,6.015250087E-1,8.794068336E0,8.824467116E0
1.155547442E1,-4.911903739E-1,6.288940310E-1,8.798991203E0,8.835101691E0
1.156543542E1,-4.996155500E-1,6.993351579E-1,8.806247711E0,8.848089292E0
1.157539742E1,-5.455663800E-1,8.217729330E-1,8.811416626E0,8.866454556E0
1.158535942E1,-5.892651081E-1,7.180380225E-1,8.817443848E0,8.866235276E0
1.159532042E1,-5.726128221E-1,5.450388789E-1,8.830891609E0,8.866205470E0
1.160528242E1,-5.975544453E-1,5.997247696E-1,8.837652206E0,8.878110026E0
1.161524442E1,-5.555635691E-1,7.683383226E-1,8.849707603E0,8.900355011E0
1.162520542E1,-5.349168777E-1,6.613125801E-1,8.861751556E0,8.902477804E0
1.163516742E1,-4.871584177E-1,6.703174710E-1,8.880664825E0,8.919240807E0
1.164512842E1,-4.531700909E-1,6.687382460E-1,8.895229340E0,8.931835140E0
1.165509042E1,-4.350999296E-1,6.098942757E-1,8.907694817E0,8.939144809E0
1.166505242E1,-4.224224985E-1,6.093115807E-1,8.915633202E0,8.946408036E0
1.167501342E1,-4.492479861E-1,6.525838971E-1,8.926279068E0,8.961369733E0
1.168497542E1,-4.729162753E-1,6.044872403E-1,8.934299469E0,8.967204783E0
1.169493742E1,-5.060383081E-1,4.691680074E-1,8.940170288E0,8.966762970E0
1.170489842E1,-5.635303259E-1,5.352903008E-1,8.948026657E0,8.981719389E0
1.171486042E1,-5.908755064E-1,5.126149058E-1,8.955116272E0,8.989216615E0
1.172482242E1,-6.224667430E-1,4.977307916E-1,8.965221405E0,9.000577516E0
1.173478342E1,-6.464547515E-1,4.785496294E-1,8.973264694E0,9.009239300E0
1.174474542E1,-6.454062462E-1,4.580121338E-1,8.983905792E0,9.018696559E0
1.175470642E1,-6.368209124E-1,4.180057347E-1,8.992512703E0,9.024719075E0
1.176466842E1,-6.042496562E-1,4.362635612E-1,9.005238533E0,9.036025928E0
1.177463042E1,-5.783064961E-1,3.897074759E-1,9.018452644E0,9.045374421E0
1.178459142E1,-5.329267979E-1,4.015574753E-1,9.029068947E0,9.053692364E0
1.179455342E1,-4.985176325E-1,4.013599753E-1,9.040906906E0,9.063531726E0
1.180451542E1,-4.697171450E-1,4.034846425E-1,9.051087379E0,9.072244309E0
1.181447642E1,-4.547314644E-1,4.173638523E-1,9.062562943E0,9.083557694E0
1.182443842E1,-4.539008141E-1,4.536480904E-1,9.070066452E0,9.092740400E0
1.183440042E1,-4.677754343E-1,4.729923606E-1,9.073772430E0,9.098125178E0
1.184436142E1,-4.950179756E-1,5.060282946E-1,9.078462601E0,9.106019472E0
1.185432342E1,-5.240460038E-1,5.498349071E-1,9.083499908E0,9.115202314E0
1.186428542E1,-5.610545874E-1,5.738608837E-1,9.088163376E0,9.123530682E0
1.187424642E1,-5.868875980E-1,5.997424722E-1,9.092577934E0,9.131215778E0
1.188420842E1,-6.047089696E-1,6.274872422E-1,9.097912788E0,9.139553068E0
1.189417042E1,-6.108546257E-1,6.381866932E-1,9.104412079E0,9.147171417E0
1.190413138E1,-6.031876802E-1,6.410288215E-1,9.113967896E0,9.156372870E0
1.191409337E1,-5.866165161E-1,6.497989297E-1,9.122319221E0,9.164227494E0
1.192405438E1,-5.650255084E-1,6.425002813E-1,9.131025314E0,9.171024137E0
1.193401637E1,-5.397015214E-1,6.357464194E-1,9.142142296E0,9.180098965E0
1.194397838E1,-5.145605206E-1,6.358521581E-1,9.151448250E0,9.187931517E0
1.195393938E1,-5.037505627E-1,6.242690682E-1,9.160891533E0,9.195945312E0
1.196390137E1,-5.001161695E-1,6.135964990E-1,9.168339729E0,9.202449143E0
1.197386338E1,-5.078305602E-1,6.073384285E-1,9.173008919E0,9.207108366E0
1.198382437E1,-5.260372758E-1,6.000435352E-1,9.182937622E0,9.217543644E0
1.199378638E1,-5.490190983E-1,5.913720727E-1,9.186864853E0,9.222235560E0
1.200374837E1,-5.730940700E-1,5.832505226E-1,9.195796013E0,9.232078980E0
1.201370938E1,-5.922371149E-1,5.731610060E-1,9.201132774E0,9.237970701E0
1.202367138E1,-6.041813493E-1,5.617738366E-1,9.205099106E0,9.241995158E0
1.203363337E1,-6.081337929E-1,5.548791885E-1,9.215404510E0,9.252102351E0
1.204359438E1,-5.987527966E-1,5.404518247E-1,9.222377777E0,9.257583105E0
1.205355637E1,-5.752757788E-1,5.294221640E-1,9.229859352E0,9.262911730E0
1.206351738E1,-5.448736548E-1,5.201689601E-1,9.242286682E0,9.272935143E0
1.207347937E1,-5.120344162E-1,5.140390992E-1,9.254082680E0,9.282481440E0
1.208344138E1,-4.804964364E-1,5.083923936E-1,9.260975838E0,9.287357704E0
1.209340238E1,-4.485194683E-1,5.102616549E-1,9.272080421E0,9.296935625E0
1.210336437E1,-4.308747053E-1,5.125399828E-1,9.279184341E0,9.303311899E0
1.211332638E1,-4.234883487E-1,5.189692378E-1,9.287298203E0,9.311421983E0
1.212328737E1,-4.332970381E-1,5.312501788E-1,9.292867661E0,9.318120113E0
1.213324938E1,-4.505350888E-1,5.383459926E-1,9.299839020E0,9.326296375E0
1.214321137E1,-4.832807779E-1,5.460531712E-1,9.300280571E0,9.328823778E0
1.215317238E1,-5.156767964E-1,5.572127104E-1,9.305555344E0,9.336475182E0
1.216313438E1,-5.495407581E-1,5.627344847E-1,9.310893059E0,9.344056651E0
1.217309637E1,-5.770030618E-1,5.550487638E-1,9.316473961E0,9.350812731E0
1.218305738E1,-5.995871425E-1,5.541499257E-1,9.320989609E0,9.356678586E0
1.219301937E1,-6.052376628E-1,5.426594019E-1,9.327589035E0,9.362943397E0
1.220298038E1,-6.085737944E-1,5.282708406E-1,9.332859039E0,9.367587202E0
1.221294237E1,-6.014049053E-1,5.063949823E-1,9.340664864E0,9.373694247E0
1.222290438E1,-5.927480459E-1,4.877443016E-1,9.349487305E0,9.380946520E0
1.223286538E1,-5.834532976E-1,4.663250744E-1,9.353265762E0,9.383040938E0
1.224282737E1,-5.739309192E-1,4.516366720E-1,9.364347458E0,9.392783171E0
1.225278938E1,-5.705134273E-1,4.343401790E-1,9.373691559E0,9.401076024E0
1.226275037E1,-5.769548416E-1,4.218645990E-1,9.378841400E0,9.406035968E0
1.227271238E1,-5.922719240E-1,4.157379866E-1,9.386093140E0,9.413945429E0
1.228267437E1,-6.087518334E-1,4.137091637E-1,9.388525009E0,9.417331677E0
1.229263538E1,-6.291412711E-1,4.116304219E-1,9.392801285E0,9.422843218E0
1.230259738E1,-6.539110541E-1,4.155719280E-1,9.399195671E0,9.431075175E0
1.231255937E1,-6.699786782E-1,4.266011715E-1,9.401537895E0,9.435029135E0
1.232252038E1,-6.792161465E-1,4.345352650E-1,9.405297279E0,9.439797264E0
1.233248237E1,-6.783082485E-1,4.450166523E-1,9.410707474E0,9.445610465E0
1.234244438E1,-6.706074476E-1,4.581380486E-1,9.419092178E0,9.454041585E0
1.235240537E1,-6.504437327E-1,4.714084268E-1,9.424962044E0,9.459133812E0
1.236236738E1,-6.230645180E-1,4.839098454E-1,9.429252625E0,9.462197588E0
1.237232838E1,-5.966292620E-1,5.042302608E-1,9.439541817E0,9.471808927E0
1.238229037E1,-5.694293380E-1,5.267129540E-1,9.444844246E0,9.476642820E0
1.239225238E1,-5.447259545E-1,5.479298830E-1,9.447863579E0,9.479402920E0
1.240221337E1,-5.298939943E-1,5.705829859E-1,9.457520485E0,9.489522976E0
1.241217538E1,-5.269628167E-1,5.971753597E-1,9.459550858E0,9.493019048E0
1.242213737E1,-5.369355083E-1,6.206524372E-1,9.464398384E0,9.499912945E0
1.243209838E1,-5.498306751E-1,6.414529681E-1,9.468955040E0,9.506570635E0
1.244206038E1,-5.695739985E-1,6.581453681E-1,9.470558167E0,9.510470117E0
1.245202237E1,-5.963186622E-1,6.738183498E-1,9.471008301E0,9.513654679E0
1.246198338E1,-6.198290586E-1,6.788525581E-1,9.476918221E0,9.521397367E0
1.247194537E1,-6.376439333E-1,6.822537184E-1,9.478588104E0,9.524478588E0
1.248190738E1,-6.447732449E-1,6.759819388E-1,9.483166695E0,9.529067881E0
1.249186837E1,-6.446697712E-1,6.655083299E-1,9.488043785E0,9.533177609E0
1.250183038E1,-6.400979161E-1,6.469509006E-1,9.494885445E0,9.538402404E0
1.251179138E1,-6.266799569E-1,6.265600920E-1,9.500455856E0,9.541696222E0
1.252175337E1,-6.121572256E-1,6.037504077E-1,9.509428024E0,9.548218283E0
1.253171538E1,-5.925207734E-1,5.792117715E-1,9.514864922E0,9.550875437E0
1.254167637E1,-5.801793933E-1,5.577051640E-1,9.521121025E0,9.555071363E0
1.255163838E1,-5.723853707E-1,5.346340537E-1,9.529067039E0,9.561201662E0
1.256160037E1,-5.760786533E-1,5.185093880E-1,9.534908295E0,9.566357446E0
1.257156138E1,-5.844823122E-1,5.005109310E-1,9.539399147E0,9.570384885E0
1.258152338E1,-5.954840779E-1,4.902308285E-1,9.545026779E0,9.576140338E0
1.259148537E1,-6.106304526E-1,4.829432070E-1,9.544799805E0,9.576497638E0
1.260144638E1,-6.287665963E-1,4.797724485E-1,9.550313950E0,9.583007126E0
1.261140837E1,-6.409389973E-1,4.747731388E-1,9.554325104E0,9.587561761E0
1.262137038E1,-6.461688876E-1,4.779470861E-1,9.556054115E0,9.589793423E0
1.263133137E1,-6.485133767E-1,4.736588001E-1,9.560398102E0,9.594067653E0
1.264129338E1,-6.408205628E-1,4.754537642E-1,9.565650940E0,9.598874162E0
1.265125538E1,-6.292434335E-1,4.801330268E-1,9.573702812E0,9.606365627E0
1.266121637E1,-6.142839193E-1,4.894016385E-1,9.577121735E0,9.609272575E0
1.267117838E1,-5.972504616E-1,4.955306947E-1,9.580523491E0,9.611903513E0
1.268113937E1,-5.835487843E-1,5.066488385E-1,9.586704254E0,9.617802279E0
1.269110138E1,-5.761084557E-1,5.174257755E-1,9.589224815E0,9.620439852E0
1.270106337E1,-5.779114366E-1,5.323207974E-1,9.592355728E0,9.624481050E0
1.271102438E1,-5.817760825E-1,5.486829281E-1,9.594493866E0,9.627763443E0
1.272098638E1,-5.999657512E-1,5.631963611E-1,9.597457886E0,9.632670809E0
1.273094837E1,-6.207708120E-1,5.756865740E-1,9.598530769E0,9.635795990E0
1.274090938E1,-6.451776028E-1,5.899941325E-1,9.601224899E0,9.640947401E0
1.275087137E1,-6.701418161E-1,6.004501581E-1,9.600775719E0,9.642848378E0
1.276083338E1,-6.923443079E-1,6.105462313E-1,9.602524757E0,9.646791646E0
1.277079437E1,-7.067750096E-1,6.144958138E-1,9.606236458E0,9.651782991E0
1.278075638E1,-7.131791115E-1,6.111117601E-1,9.606085777E0,9.651889245E0
1.279071838E1,-7.082688212E-1,6.079322100E-1,9.611103058E0,9.656320639E0
1.280067937E1,-7.002372146E-1,6.038448215E-1,9.616926193E0,9.661274767E0
1.281064138E1,-6.798579693E-1,5.991167426E-1,9.623477936E0,9.666047554E0
1.282060337E1,-6.595212817E-1,5.961076021E-1,9.623824120E0,9.664797115E0
1.283056438E1,-6.392610669E-1,5.903570652E-1,9.628179550E0,9.667420423E0
1.284052637E1,-6.237111092E-1,5.907434821E-1,9.635163307E0,9.673384380E0
1.285048738E1,-6.143506765E-1,5.935205221E-1,9.638320923E0,9.676100639E0
1.286044938E1,-6.051542759E-1,5.983221531E-1,9.643856049E0,9.681330517E0
1.287041137E1,-6.069143414E-1,6.036514044E-1,9.644505501E0,9.682418416E0
1.288037238E1,-6.071113944E-1,6.134867668E-1,9.646508217E0,9.685043678E0
1.289033437E1,-6.107306480E-1,6.270470023E-1,9.646987915E0,9.686617351E0
1.290029617E1,-6.151937842E-1,6.372827291E-1,9.651513100E0,9.692073967E0
1.291025717E1,-6.151605844E-1,6.492580175E-1,9.655000687E0,9.696339349E0
1.292021917E1,-6.070419550E-1,6.585313678E-1,9.654128075E0,9.695584169E0
1.293018117E1,-5.993914008E-1,6.679598689E-1,9.659037590E0,9.700641608E0
1.294014217E1,-5.850841403E-1,6.766457558E-1,9.660366058E0,9.701692910E0
1.295010417E1,-5.649232268E-1,6.810449958E-1,9.665962219E0,9.706378633E0
1.296006617E1,-5.479311943E-1,6.836090684E-1,9.668286324E0,9.707899381E0
1.297002717E1,-5.327039361E-1,6.853064299E-1,9.672951698E0,9.711818210E0
1.297998917E1,-5.218246579E-1,6.890971661E-1,9.675309181E0,9.713843916E0
1.298995117E1,-5.131071210E-1,6.862150431E-1,9.675142288E0,9.713009230E0
1.299991217E1,-5.175154805E-1,6.784881353E-1,9.682364464E0,9.719894548E0
1.300987417E1,-5.255451202E-1,6.765265465E-1,9.684951782E0,9.722765906E0
1.301983517E1,-5.417126417E-1,6.686523557E-1,9.683818817E0,9.721980017E0
1.302979717E1,-5.623934865E-1,6.565064788E-1,9.684183121E0,9.722689438E0
1.303975917E1,-5.855137110E-1,6.424428225E-1,9.687047958E0,9.725968190E0
1.304972017E1,-6.069895625E-1,6.287006140E-1,9.685182571E0,9.724528895E0
1.305968217E1,-6.207762361E-1,6.083018780E-1,9.689021111E0,9.727924979E0
1.306964417E1,-6.323679686E-1,5.872003436E-1,9.689817429E0,9.728168136E0
1.307960517E1,-6.410232782E-1,5.692407489E-1,9.693102837E0,9.730939753E0
1.308956717E1,-6.373263597E-1,5.406359434E-1,9.698445320E0,9.734388206E0
1.309952917E1,-6.265391707E-1,5.189322233E-1,9.703927040E0,9.737969089E0
1.310949017E1,-6.140509844E-1,5.016596913E-1,9.705023766E0,9.737361416E0
1.311945217E1,-6.024577022E-1,4.847014844E-1,9.708143234E0,9.738887815E0
1.312941417E1,-5.939140916E-1,4.731188118E-1,9.712479591E0,9.742116565E0
1.313937517E1,-5.868572593E-1,4.665269554E-1,9.712237358E0,9.741129470E0
1.314933717E1,-5.876110792E-1,4.685181379E-1,9.715629578E0,9.744652591E0
1.315929917E1,-5.922859907E-1,4.803540111E-1,9.716152191E0,9.746032838E0
1.316926017E1,-5.968968272E-1,4.907467663E-1,9.716619492E0,9.747297705E0
1.317922217E1,-6.015970111E-1,5.083161592E-1,9.718825340E0,9.750685631E0
1.318918317E1,-5.972425342E-1,5.308232903E-1,9.721038818E0,9.753823236E0
1.319914517E1,-5.898240805E-1,5.587505102E-1,9.719652176E0,9.753549764E0
1.320910717E1,-5.751136541E-1,5.724565387E-1,9.718708992E0,9.752526169E0
1.321906817E1,-5.519212484E-1,6.002335548E-1,9.721281052E0,9.755419144E0
1.322903017E1,-5.270352960E-1,6.252098680E-1,9.723236084E0,9.757559814E0
1.323899217E1,-5.112592578E-1,6.447982192E-1,9.722935677E0,9.757695883E0
1.324895317E1,-4.953493476E-1,6.626992822E-1,9.727737427E0,9.762859046E0
1.325891517E1,-4.967426956E-1,6.867976785E-1,9.728190422E0,9.765046505E0
1.326887717E1,-5.085973144E-1,6.987409592E-1,9.723775864E0,9.762106699E0
1.327883817E1,-5.358281136E-1,7.086644173E-1,9.725574493E0,9.766069642E0
1.328880017E1,-5.709990263E-1,7.180183530E-1,9.724611282E0,9.767786588E0
1.329876217E1,-6.143856049E-1,7.155330777E-1,9.722884178E0,9.768517492E0
1.330872317E1,-6.534159780E-1,7.141760588E-1,9.718651772E0,9.766739074E0
1.331868517E1,-6.870983243E-1,7.054659128E-1,9.713433266E0,9.763225495E0
1.332864717E1,-7.097446322E-1,6.829324961E-1,9.716889381E0,9.766681805E0
1.333860817E1,-7.135418057E-1,6.614770293E-1,9.718751907E0,9.767334969E0
1.334857017E1,-7.056759596E-1,6.392969489E-1,9.719739914E0,9.766269664E0
1.335853217E1,-6.740578413E-1,6.047245860E-1,9.723692894E0,9.765769263E0
1.336849317E1,-6.354827881E-1,5.774911046E-1,9.729081154E0,9.766900964E0
1.337845517E1,-5.912876725E-1,5.544478893E-1,9.734896660E0,9.768584675E0
1.338841617E1,-5.528991222E-1,5.305565596E-1,9.740771294E0,9.770865524E0
1.339837817E1,-5.124211907E-1,5.181041360E-1,9.744235039E0,9.771444308E0
1.340834017E1,-4.909019768E-1,5.122693181E-1,9.745934486E0,9.771726747E0
1.341830117E1,-4.774324894E-1,5.096503496E-1,9.749030113E0,9.774010099E0
1.342826317E1,-4.804720283E-1,5.212038159E-1,9.747327805E0,9.773070455E0
1.343822517E1,-4.968504906E-1,5.330426097E-1,9.743814468E0,9.771024267E0
1.344818617E1,-5.199278593E-1,5.465019345E-1,9.745079041E0,9.774229118E0
1.345814817E1,-5.444784760E-1,5.639067888E-1,9.743308067E0,9.774788989E0
1.346811017E1,-5.645569563E-1,5.809881091E-1,9.739464760E0,9.773098053E0
1.347807117E1,-5.793955326E-1,5.916782618E-1,9.738310814E0,9.773457927E0
1.348803317E1,-5.825489759E-1,6.006867290E-1,9.737286568E0,9.773174385E0
1.349799517E1,-5.769256949E-1,6.052412987E-1,9.737382889E0,9.773217782E0
1.350795617E1,-5.610965490E-1,6.054316759E-1,9.737441063E0,9.772365901E0
1.351791817E1,-5.438137054E-1,6.012081504E-1,9.739258766E0,9.772939471E0
1.352788017E1,-5.267780423E-1,5.982166529E-1,9.740218163E0,9.772778936E0
1.353784117E1,-5.162127018E-1,5.855327845E-1,9.745013237E0,9.776226633E0
1.354780317E1,-5.180501342E-1,5.750055313E-1,9.740850449E0,9.771549251E0
1.355776417E1,-5.290998816E-1,5.672804713E-1,9.740697861E0,9.771537680E0
1.356772617E1,-5.549818277E-1,5.525038242E-1,9.741734505E0,9.773160004E0
1.357768817E1,-5.897989273E-1,5.420205593E-1,9.737901688E0,9.770792104E0
1.358764917E1,-6.271873713E-1,5.288150311E-1,9.736701012E0,9.771200332E0
1.359761117E1,-6.701505780E-1,5.138714910E-1,9.732758522E0,9.769327211E0
1.360757317E1,-7.041809559E-1,4.941401482E-1,9.732250214E0,9.770196494E0
1.361753417E1,-7.288694978E-1,4.753462374E-1,9.728899002E0,9.767736718E0
1.362749617E1,-7.406653762E-1,4.549278915E-1,9.727483749E0,9.766242096E0
1.363745817E1,-7.413197160E-1,4.436256886E-1,9.728827477E0,9.767110255E0
1.364741917E1,-7.258572578E-1,4.247050881E-1,9.733559608E0,9.769822200E0
1.365738117E1,-7.007780075E-1,4.117120504E-1,9.733431816E0,9.767307282E0
1.366734317E1,-6.686699986E-1,4.068099856E-1,9.733907700E0,9.765325035E0
1.367730417E1,-6.323061585E-1,4.066406190E-1,9.737575531E0,9.766552355E0
1.368726617E1,-5.985395908E-1,4.138584733E-1,9.737676620E0,9.764828439E0
1.369722817E1,-5.742398500E-1,4.302997589E-1,9.740064621E0,9.766461391E0
1.370718917E1,-5.577405095E-1,4.539690316E-1,9.734419823E0,9.760947272E0
1.371715117E1,-5.550355315E-1,4.830057323E-1,9.735350609E0,9.763114793E0
1.372711317E1,-5.597339869E-1,5.165295601E-1,9.729994774E0,9.759759383E0
1.373707417E1,-5.745121837E-1,5.504131913E-1,9.726136208E0,9.758624107E0
1.374703617E1,-5.926622748E-1,5.894466639E-1,9.721057892E0,9.756928947E0
1.375699717E1,-6.104815006E-1,6.262659431E-1,9.718124390E0,9.757399159E0
1.376695917E1,-6.219301224E-1,6.550968885E-1,9.713313103E0,9.755224264E0
1.377692117E1,-6.294410229E-1,6.807103157E-1,9.714203835E0,9.758346103E0
1.378688217E1,-6.250455976E-1,6.988409162E-1,9.709247589E0,9.754411790E0
1.379684417E1,-6.156164408E-1,7.093803883E-1,9.710265160E0,9.755585764E0
1.380680617E1,-5.998778939E-1,7.163204551E-1,9.708218575E0,9.753075226E0
1.381676717E1,-5.844789743E-1,7.173261046E-1,9.703546524E0,9.747563160E0
1.382672917E1,-5.673542023E-1,7.094339728E-1,9.708356857E0,9.750763058E0
1.383669117E1,-5.605878830E-1,6.987139583E-1,9.701415062E0,9.742685162E0
1.384665217E1,-5.618557334E-1,6.827229261E-1,9.704183578E0,9.744381529E0
1.385661417E1,-5.740937591E-1,6.641585827E-1,9.704071045E0,9.743699765E0
1.386657617E1,-5.915106535E-1,6.482701898E-1,9.700879097E0,9.740492510E0
1.387653717E1,-6.149243116E-1,6.267236471E-1,9.695548058E0,9.735222985E0
1.388649917E1,-6.422855854E-1,6.015764475E-1,9.693380356E0,9.733244460E0
1.389646117E1,-6.651938558E-1,5.768047571E-1,9.691341400E0,9.731252989E0
1.390642187E1,-6.825861931E-1,5.476875901E-1,9.688202858E0,9.727649265E0
1.391638387E1,-6.946039796E-1,5.242064595E-1,9.685873985E0,9.724886732E0
1.392634588E1,-6.936506629E-1,4.965142012E-1,9.687511444E0,9.724996431E0
1.393630687E1,-6.809630990E-1,4.708365202E-1,9.687811852E0,9.723121733E0
1.394626888E1,-6.611075997E-1,4.522958994E-1,9.685127258E0,9.718195555E0
1.395622987E1,-6.381679177E-1,4.349488616E-1,9.685530663E0,9.716272074E0
1.396619188E1,-6.134952307E-1,4.260621369E-1,9.686282158E0,9.715038208E0
1.397615388E1,-5.841692686E-1,4.206289947E-1,9.685429573E0,9.712143353E0
1.398611488E1,-5.652933121E-1,4.284842610E-1,9.683119774E0,9.709066065E0
1.399607688E1,-5.553674698E-1,4.349062145E-1,9.682225227E0,9.707886577E0
1.400603887E1,-5.542153120E-1,4.561731815E-1,9.678615570E0,9.705196955E0
1.401599988E1,-5.604495406E-1,4.778175056E-1,9.671638489E0,9.699639391E0
1.402596187E1,-5.747600198E-1,5.062411427E-1,9.670415878E0,9.700699585E0
1.403592388E1,-5.965790153E-1,5.316545963E-1,9.664320946E0,9.697301814E0
1.404588487E1,-6.188110113E-1,5.578795671E-1,9.658359528E0,9.694228460E0
1.405584687E1,-6.359870434E-1,5.792828202E-1,9.651700974E0,9.689962837E0
1.406580888E1,-6.521050334E-1,6.006320119E-1,9.645590782E0,9.686249084E0
1.407576987E1,-6.636184454E-1,6.135305166E-1,9.640740395E0,9.683010095E0
1.408573188E1,-6.662459373E-1,6.254942417E-1,9.635359764E0,9.678599304E0
1.409569387E1,-6.618685126E-1,6.327388287E-1,9.633807182E0,9.677224250E0
1.410565488E1,-6.573716998E-1,6.340531707E-1,9.631578445E0,9.674784976E0
1.411561688E1,-6.469011903E-1,6.369562745E-1,9.627027512E0,9.669739043E0
1.412557887E1,-6.410430074E-1,6.334975958E-1,9.624872208E0,9.666975761E0
1.413553988E1,-6.347062588E-1,6.270846725E-1,9.622139931E0,9.663418860E0
1.414550187E1,-6.359956861E-1,6.169062257E-1,9.617003441E0,9.657733636E0
1.415546388E1,-6.434165835E-1,6.136992574E-1,9.611472130E0,9.652513050E0
1.416542487E1,-6.546700597E-1,6.131228805E-1,9.607255936E0,9.649035142E0
1.417538688E1,-6.666218042E-1,6.064811945E-1,9.603339195E0,9.645534084E0
1.418534787E1,-6.789805293E-1,5.998716354E-1,9.600617409E0,9.643273053E0
1.419530987E1,-6.865713596E-1,5.978140831E-1,9.594229698E0,9.637323561E0
1.420527188E1,-6.854916811E-1,5.925303698E-1,9.592074394E0,9.634774635E0
1.421523287E1,-6.766731739E-1,5.858825445E-1,9.587470055E0,9.629160243E0
1.422519488E1,-6.622080207E-1,5.833326578E-1,9.582886696E0,9.623435659E0
1.423515687E1,-6.413272619E-1,5.884430408E-1,9.582034111E0,9.621483439E0
1.424511788E1,-6.122078300E-1,5.858468413E-1,9.580367088E0,9.617767334E0
1.425507988E1,-5.818699002E-1,5.935394168E-1,9.573520660E0,9.609534820E0
1.426504187E1,-5.521460176E-1,6.030669212E-1,9.572851181E0,9.607707045E0
1.427500288E1,-5.246616602E-1,6.160929799E-1,9.565931320E0,9.600098043E0
1.428496487E1,-5.105664730E-1,6.268686652E-1,9.562914848E0,9.597029897E0
1.429492688E1,-5.011255741E-1,6.416857243E-1,9.562087059E0,9.596686737E0
1.430488787E1,-4.970690012E-1,6.594470739E-1,9.552444458E0,9.588072964E0
1.431484988E1,-5.003420115E-1,6.761011481E-1,9.547441483E0,9.584419323E0
1.432481188E1,-5.109975338E-1,6.874207854E-1,9.539478302E0,9.577855297E0
1.433477287E1,-5.272426009E-1,6.989341378E-1,9.535609245E0,9.575716024E0
1.434473488E1,-5.453279018E-1,7.022857070E-1,9.530601501E0,9.571987919E0
1.435469687E1,-5.589529276E-1,7.031927705E-1,9.519277573E0,9.561566501E0
1.436465788E1,-5.751673579E-1,6.949275136E-1,9.514922142E0,9.557587829E0
1.437461987E1,-5.808603764E-1,6.842232347E-1,9.510906219E0,9.553161640E0
1.438458088E1,-5.845622420E-1,6.708449721E-1,9.504878998E0,9.546437595E0
1.439454288E1,-5.826125145E-1,6.444749236E-1,9.499948502E0,9.539591543E0
1.440450487E1,-5.803827047E-1,6.242979169E-1,9.494441032E0,9.532628310E0
1.441446588E1,-5.761501789E-1,5.964806676E-1,9.490821838E0,9.526984695E0
1.442442787E1,-5.759172440E-1,5.669466853E-1,9.487174034E0,9.521532459E0
1.443438988E1,-5.778669715E-1,5.433310866E-1,9.481726646E0,9.514845196E0
1.444435087E1,-5.813624859E-1,5.177758932E-1,9.480150223E0,9.512061946E0
1.445431288E1,-5.903251171E-1,4.954980314E-1,9.473019600E0,9.504320196E0
1.446427488E1,-6.043860316E-1,4.775430262E-1,9.465538979E0,9.496828838E0
1.447423587E1,-6.162267327E-1,4.635534585E-1,9.461863518E0,9.493233297E0
1.448419788E1,-6.251219511E-1,4.522939324E-1,9.455625534E0,9.487054416E0
1.449415987E1,-6.300610304E-1,4.484134316E-1,9.444357872E0,9.475966817E0
1.450412088E1,-6.300891638E-1,4.417712092E-1,9.442884445E0,9.474188134E0
1.451408287E1,-6.276036501E-1,4.478858113E-1,9.435328484E0,9.466779370E0
1.452404488E1,-6.169493794E-1,4.535293877E-1,9.431654930E0,9.462686202E0
1.453400588E1,-5.984915495E-1,4.658675492E-1,9.424047470E0,9.454517197E0
1.454396787E1,-5.790163279E-1,4.800542593E-1,9.420549393E0,9.450527121E0
1.455392988E1,-5.591877699E-1,4.943940341E-1,9.415103912E0,9.444643884E0
1.456389087E1,-5.373446941E-1,5.195634365E-1,9.407705307E0,9.437351569E0
1.457385288E1,-5.264007449E-1,5.420916080E-1,9.398580551E0,9.428906481E0
1.458381487E1,-5.190726519E-1,5.708270669E-1,9.393968582E0,9.425599487E0
1.459377588E1,-5.167067051E-1,5.974261761E-1,9.386412621E0,9.419588406E0
1.460373788E1,-5.224404335E-1,6.289406419E-1,9.376796722E0,9.412376273E0
1.461369887E1,-5.282839537E-1,6.524789929E-1,9.367280006E0,9.404825755E0
1.462366088E1,-5.396540761E-1,6.758113503E-1,9.360263824E0,9.400132253E0
1.463362287E1,-5.532849431E-1,6.905628443E-1,9.347585678E0,9.389374808E0
1.464358388E1,-5.624566078E-1,7.013872266E-1,9.338808060E0,9.381984729E0
1.465354587E1,-5.721734166E-1,7.086416483E-1,9.333380699E0,9.377715643E0
1.466350788E1,-5.782644153E-1,7.070277333E-1,9.324433327E0,9.369062643E0
1.467346888E1,-5.774700046E-1,7.023797035E-1,9.316950798E0,9.361216856E0
1.468343087E1,-5.738767385E-1,6.891810894E-1,9.310081482E0,9.353177123E0
1.469339288E1,-5.681511760E-1,6.739504933E-1,9.306751251E0,9.348402210E0
1.470335387E1,-5.598185658E-1,6.529707909E-1,9.299581528E0,9.339271078E0
1.471331588E1,-5.523864627E-1,6.355872750E-1,9.292101860E0,9.330180007E0
1.472327787E1,-5.450244546E-1,6.069169641E-1,9.286322594E0,9.322080625E0
1.473323888E1,-5.414329171E-1,5.853272676E-1,9.280465126E0,9.314654614E0
1.474320088E1,-5.352644324E-1,5.632858276E-1,9.276674271E0,9.309161319E0
1.475316287E1,-5.391364098E-1,5.459150672E-1,9.267141342E0,9.298849390E0
1.476312388E1,-5.381136537E-1,5.323874950E-1,9.260933876E0,9.291818929E0
1.477308587E1,-5.404886603E-1,5.133080482E-1,9.253370285E0,9.283343944E0
1.478304788E1,-5.432233214E-1,4.992822111E-1,9.247312546E0,9.276700039E0
1.479300887E1,-5.391428471E-1,4.901923239E-1,9.240921974E0,9.269606381E0
1.480297088E1,-5.375427008E-1,4.837515950E-1,9.232496262E0,9.260775075E0
1.481293288E1,-5.329250693E-1,4.817102849E-1,9.224287033E0,9.252217312E0
1.482289387E1,-5.209473968E-1,4.743697643E-1,9.217821121E0,9.244708707E0
1.483285588E1,-5.134346485E-1,4.759018719E-1,9.210344315E0,9.236911828E0
1.484281687E1,-4.997308850E-1,4.821875989E-1,9.203501701E0,9.229663017E0
1.485277888E1,-4.894577265E-1,4.828597903E-1,9.195477486E0,9.221145733E0
1.486274087E1,-4.857951999E-1,4.898125529E-1,9.187980652E0,9.213842943E0
1.487270188E1,-4.840572178E-1,4.979450405E-1,9.179032326E0,9.205264531E0
1.488266388E1,-4.883019328E-1,5.054375529E-1,9.167494774E0,9.194393201E0
1.489262587E1,-4.957686365E-1,5.146076083E-1,9.158843994E0,9.186676812E0
1.490258667E1,-5.113737583E-1,5.179659128E-1,9.150126457E0,9.179030776E0
1.491254867E1,-5.274851322E-1,5.242286325E-1,9.136507988E0,9.166724303E0
1.492251067E1,-5.446745157E-1,5.249167681E-1,9.129415512E0,9.160700603E0
1.493247167E1,-5.638130307E-1,5.257756114E-1,9.119062424E0,9.151591371E0
1.494243367E1,-5.828967094E-1,5.224210024E-1,9.109274864E0,9.142843148E0
1.495239567E1,-5.985923409E-1,5.181967020E-1,9.098951340E0,9.133332146E0
1.496235667E1,-6.085357666E-1,5.104420781E-1,9.087689400E0,9.122333337E0
1.497231867E1,-6.162525415E-1,4.957627654E-1,9.082170486E0,9.116543679E0
1.498228067E1,-6.182327271E-1,4.851134121E-1,9.072608948E0,9.106578932E0
1.499224167E1,-6.159818172E-1,4.724026918E-1,9.061607361E0,9.094796637E0
1.500220367E1,-6.129611135E-1,4.618819058E-1,9.051223755E0,9.083705614E0
1.501216567E1,-6.103682518E-1,4.568812847E-1,9.043896675E0,9.075976916E0
1.502212667E1,-6.044906378E-1,4.469253123E-1,9.038392067E0,9.069602104E0
1.503208867E1,-5.980995893E-1,4.421089888E-1,9.028600693E0,9.059183956E0
1.504205067E1,-5.973556042E-1,4.419842064E-1,9.019506454E0,9.050065217E0
1.505201167E1,-5.910050273E-1,4.449075460E-1,9.007116318E0,9.037442892E0
1.506197367E1,-5.888701081E-1,4.536812901E-1,9.000219345E0,9.030866126E0
1.507193467E1,-5.844687223E-1,4.600236118E-1,8.988430977E0,9.019152778E0
1.508189667E1,-5.798031688E-1,4.765488803E-1,8.978856087E0,9.010167988E0
1.509185867E1,-5.742217302E-1,4.923195839E-1,8.968851089E0,9.000688809E0
1.510181967E1,-5.662188530E-1,5.122804046E-1,8.957002640E0,8.989490046E0
1.511178167E1,-5.576895475E-1,5.293624401E-1,8.949050903E0,8.982023953E0
1.512174367E1,-5.444929600E-1,5.475844741E-1,8.938129425E0,8.971425693E0
1.513170467E1,-5.348158479E-1,5.678431392E-1,8.927945137E0,8.961957275E0
1.514166667E1,-5.231629610E-1,5.864975452E-1,8.918024063E0,8.952588008E0
1.515162867E1,-5.125169754E-1,5.989730954E-1,8.908694267E0,8.943504680E0
1.516158967E1,-5.066740513E-1,6.140578985E-1,8.896751404E0,8.932299325E0
1.517155167E1,-5.044953227E-1,6.289945245E-1,8.886476517E0,8.922982378E0
1.518151367E1,-5.032188296E-1,6.342652440E-1,8.873090744E0,8.909952915E0
1.519147467E1,-5.077770948E-1,6.402565837E-1,8.865198135E0,8.902780692E0
1.520143667E1,-5.147438645E-1,6.364286542E-1,8.852203369E0,8.889966657E0
1.521139867E1,-5.258330107E-1,6.312780976E-1,8.840422630E0,8.878518158E0
1.522135967E1,-5.327115655E-1,6.220488548E-1,8.829239845E0,8.867141740E0
1.523132167E1,-5.411002636E-1,6.108420491E-1,8.817033768E0,8.854716368E0
1.524128367E1,-5.534122586E-1,5.924348831E-1,8.807820320E0,8.845051894E0
1.525124467E1,-5.566309094E-1,5.710476041E-1,8.797900200E0,8.833967470E0
1.526120667E1,-5.622028112E-1,5.493695736E-1,8.784684181E0,8.819782032E0
1.527116867E1,-5.639809966E-1,5.252493024E-1,8.777581215E0,8.811350259E0
1.528112967E1,-5.649085045E-1,4.991621375E-1,8.767981529E0,8.800328662E0
1.529109167E1,-5.639292598E-1,4.781650007E-1,8.754961967E0,8.786126395E0
1.530105267E1,-5.620820522E-1,4.526796043E-1,8.749233246E0,8.778948539E0
1.531101467E1,-5.573584437E-1,4.342231154E-1,8.739892960E0,8.768405048E0
1.532097667E1,-5.536199212E-1,4.169537723E-1,8.728294373E0,8.755767706E0
1.533093767E1,-5.507783294E-1,4.074859619E-1,8.714821815E0,8.741711552E0
1.534089967E1,-5.494285226E-1,3.966548145E-1,8.705336571E0,8.731671750E0
1.535086167E1,-5.476647019E-1,3.950036466E-1,8.694960594E0,8.721141224E0
1.536082267E1,-5.454815626E-1,3.964575529E-1,8.683388710E0,8.709533180E0
1.537078467E1,-5.448722243E-1,3.989553452E-1,8.671948433E0,8.698203305E0
1.538074667E1,-5.420491695E-1,4.099533558E-1,8.658831596E0,8.685461627E0
1.539070767E1,-5.444266200E-1,4.235070050E-1,8.647362709E0,8.674827972E0
1.540066967E1,-5.444919467E-1,4.354858696E-1,8.634175301E0,8.662280447E0
1.541063167E1,-5.469679236E-1,4.531570077E-1,8.621470451E0,8.650680778E0
1.542059267E1,-5.448613167E-1,4.726108611E-1,8.610198975E0,8.640356547E0
1.543055467E1,-5.478768349E-1,4.884628057E-1,8.599167824E0,8.630437544E0
1.544051667E1,-5.449372530E-1,5.060753226E-1,8.585458755E0,8.617608188E0
1.545047767E1,-5.530933738E-1,5.225630999E-1,8.571145058E0,8.604853983E0
1.546043967E1,-5.509495139E-1,5.325955153E-1,8.557303429E0,8.591544990E0
1.547040167E1,-5.558031201E-1,5.455762744E-1,8.545245171E0,8.580663471E0
1.548036267E1,-5.630413294E-1,5.562704802E-1,8.531394958E0,8.568030831E0
1.549032467E1,-5.684158802E-1,5.637835264E-1,8.518897057E0,8.556433576E0
1.550028667E1,-5.777981877E-1,5.670523047E-1,8.505929947E0,8.544369100E0
1.551024767E1,-5.819199681E-1,5.705397129E-1,8.491595268E0,8.530611737E0
1.552020967E1,-5.875595808E-1,5.686195493E-1,8.480812073E0,8.520136611E0
1.553017167E1,-5.929450393E-1,5.664147139E-1,8.465306282E0,8.504929153E0
1.554013267E1,-5.947816372E-1,5.599327683E-1,8.454265594E0,8.493638599E0
1.555009467E1,-5.913986564E-1,5.535118580E-1,8.442930222E0,8.481697853E0
1.556005567E1,-5.905357003E-1,5.459766388E-1,8.427445412E0,8.465734408E0
1.557001767E1,-5.854189992E-1,5.436120033E-1,8.413558960E0,8.451402475E0
1.557997967E1,-5.736786723E-1,5.335965753E-1,8.403264046E0,8.439708475E0
1.558994067E1,-5.654287338E-1,5.305238366E-1,8.392025948E0,8.427767480E0
1.559990267E1,-5.556074977E-1,5.270668268E-1,8.379133224E0,8.414058041E0
1.560986467E1,-5.448808074E-1,5.243988633E-1,8.367452621E0,8.401556560E0
1.561982567E1,-5.363411307E-1,5.265472531E-1,8.354241371E0,8.387983232E0
1.562978767E1,-5.218164921E-1,5.301645994E-1,8.340479851E0,8.373587707E0
1.563974967E1,-5.094475746E-1,5.373442769E-1,8.331650734E0,8.364489205E0
1.564971067E1,-4.988569915E-1,5.429467559E-1,8.317231178E0,8.349849337E0
1.565967267E1,-4.903073907E-1,5.520653129E-1,8.304876328E0,8.337634452E0
1.566963467E1,-4.798808396E-1,5.618164539E-1,8.292496681E0,8.325348314E0
1.567959567E1,-4.723112583E-1,5.712239146E-1,8.276283264E0,8.309406679E0
1.568955767E1,-4.666770697E-1,5.828887820E-1,8.262906075E0,8.296575415E0
1.569951967E1,-4.614787698E-1,5.915861130E-1,8.248335838E0,8.282389805E0
1.570948067E1,-4.532405436E-1,5.977172256E-1,8.236105919E0,8.270195498E0
1.571944267E1,-4.548371434E-1,6.013017893E-1,8.223320961E0,8.257811350E0
1.572940467E1,-4.539942443E-1,6.039766669E-1,8.208369255E0,8.243071297E0
1.573936567E1,-4.539057314E-1,6.048308611E-1,8.194895744E0,8.229712452E0
1.574932767E1,-4.570749104E-1,5.987886786E-1,8.183079720E0,8.217679663E0
1.575928967E1,-4.600565434E-1,5.924103260E-1,8.166915894E0,8.201287535E0
1.576925067E1,-4.662840664E-1,5.828405023E-1,8.150492668E0,8.184598623E0
1.577921267E1,-4.740063548E-1,5.689026713E-1,8.136564255E0,8.170190337E0
1.578917467E1,-4.805279076E-1,5.534859300E-1,8.123906136E0,8.156905335E0
1.579913567E1,-4.863777161E-1,5.360296965E-1,8.110449791E0,8.142683030E0
1.580909767E1,-4.940135181E-1,5.158367753E-1,8.096463203E0,8.127905840E0
1.581905867E1,-5.004287362E-1,4.986315966E-1,8.083862305E0,8.114671414E0
1.582902067E1,-5.033558011E-1,4.748384058E-1,8.069042206E0,8.098659191E0
1.583898267E1,-5.096870661E-1,4.564349055E-1,8.056132317E0,8.085133371E0
1.584894367E1,-5.100167394E-1,4.393344820E-1,8.040817261E0,8.068945041E0
1.585890567E1,-5.096281767E-1,4.226326644E-1,8.025616646E0,8.052879100E0
1.586886767E1,-5.080507994E-1,4.096739888E-1,8.015135765E0,8.041663368E0
1.587882867E1,-5.050060153E-1,4.006842673E-1,7.999153137E0,8.025087530E0
1.588879067E1,-5.022839904E-1,3.944063783E-1,7.987234116E0,8.012724531E0
1.589875267E1,-4.996332824E-1,3.941666186E-1,7.970983505E0,7.996347840E0
1.590871425E1,-4.957916737E-1,3.962329626E-1,7.959180355E0,7.984444994E0
1.591867625E1,-4.957835078E-1,3.998325765E-1,7.944733143E0,7.970222838E0
1.592863825E1,-4.884227812E-1,4.118799269E-1,7.928581715E0,7.954282488E0
1.593859925E1,-4.868165553E-1,4.242144227E-1,7.914974689E0,7.941270211E0
1.594856125E1,-4.830809236E-1,4.436810911E-1,7.897004128E0,7.924196759E0
1.595852325E1,-4.800290167E-1,4.606749713E-1,7.881697655E0,7.909728643E0
1.596848425E1,-4.796417952E-1,4.796848595E-1,7.866153717E0,7.895348511E0
1.597844625E1,-4.758957922E-1,4.989008904E-1,7.850245953E0,7.880465749E0
1.598840825E1,-4.741985500E-1,5.183558464E-1,7.835595608E0,7.867027112E0
1.599836925E1,-4.735156000E-1,5.367401242E-1,7.818005562E0,7.850701749E0
1.600833125E1,-4.694772065E-1,5.492473841E-1,7.802095413E0,7.835481758E0
1.601829325E1,-4.688975513E-1,5.642212033E-1,7.786540985E0,7.821024932E0
1.602825425E1,-4.677699804E-1,5.740823746E-1,7.770606995E0,7.805812731E0
1.603821625E1,-4.699008465E-1,5.834350586E-1,7.752568722E0,7.788679288E0
1.604817825E1,-4.661124945E-1,5.895826817E-1,7.738784790E0,7.775195086E0
1.605813925E1,-4.671986103E-1,5.908547044E-1,7.720746994E0,7.757404074E0
1.606810125E1,-4.685376585E-1,5.903340578E-1,7.706521988E0,7.743287608E0
1.607806325E1,-4.691948295E-1,5.878763199E-1,7.689065456E0,7.725766625E0
