"Time (s)","Linear Acceleration x (m/s^2)","Linear Acceleration y (m/s^2)","Linear Acceleration z (m/s^2)","Absolute acceleration (m/s^2)"
0.000000000E0,2.104288203E-2,7.051125378E-3,-3.303209066E-2,3.979497791E-2
9.964000084E-3,1.318594638E-2,1.297269660E-2,-5.683376670E-2,5.976819452E-2
1.992700004E-2,2.111129902E-2,5.915111876E-3,-3.602820396E-2,4.217471963E-2
2.989100001E-2,2.346589511E-2,-2.639332647E-4,-3.243684411E-2,4.003581834E-2
3.985399997E-2,2.166632770E-2,9.321759101E-3,-4.486100793E-2,5.068367569E-2
4.981800006E-2,1.660006708E-2,6.082036179E-3,-3.767477989E-2,4.161661244E-2
5.978200003E-2,7.959330445E-3,8.060889272E-3,-3.842322350E-2,4.005836967E-2
6.974499999E-2,1.949463069E-2,7.872526702E-3,-4.545917809E-2,5.008546870E-2
7.970900007E-2,2.052477761E-2,8.103500856E-3,-3.138843834E-2,3.836883219E-2
8.967200003E-2,2.426602718E-2,-5.136226206E-3,-4.680579185E-2,5.297171930E-2
9.963600000E-2,1.489770963E-2,1.027295948E-2,-4.201516807E-2,4.574658235E-2
1.096000001E-1,1.671832245E-2,1.924163811E-2,-4.366291344E-2,5.055880688E-2
1.195630000E-1,1.928903711E-2,8.839765806E-3,-5.428964317E-2,5.828871046E-2
1.295270000E-1,1.631445344E-2,1.038821815E-3,-3.153812706E-2,3.552314739E-2
1.394910000E-1,1.609545237E-2,1.115588904E-2,-4.815415978E-2,5.198404132E-2
1.494540001E-1,2.044392615E-2,1.054314652E-2,-5.024863243E-2,5.526334333E-2
1.594180000E-1,1.679379721E-2,1.148921231E-2,-3.602878869E-2,4.137761760E-2
1.693810000E-1,1.404269595E-2,6.101839053E-3,-4.381318688E-2,4.641147589E-2
1.793450001E-1,1.647179379E-2,7.899332531E-3,-4.066855431E-2,4.458307699E-2
1.893090000E-1,1.716014811E-2,1.042028647E-2,-2.390283287E-2,3.121535635E-2
1.992720000E-1,1.962589611E-2,8.497571214E-3,-5.219224691E-2,5.640403490E-2
2.092360001E-1,6.495073442E-3,2.911063721E-3,-3.348057210E-2,3.422877414E-2
2.192000001E-1,1.975902077E-2,5.925312527E-3,-3.752275229E-2,4.281921495E-2
2.291630000E-1,1.433166261E-2,4.742055349E-3,-4.725368857E-2,4.960639803E-2
2.391270000E-1,1.306908430E-2,1.256867684E-2,-2.719656944E-2,3.268678619E-2
2.490900001E-1,5.609042114E-3,8.631947539E-3,-4.276595056E-2,4.398748003E-2
2.590540000E-1,8.633528114E-3,1.004593676E-2,-4.291563928E-2,4.491336937E-2
2.690180000E-1,1.555209072E-2,7.053080541E-3,-3.094054163E-2,3.534021204E-2
2.789810001E-1,1.242142294E-2,-9.977542609E-4,-4.381494105E-2,4.555256656E-2
2.889450000E-1,1.413043616E-2,9.826273313E-3,-4.171988368E-2,4.513062782E-2
2.989090000E-1,1.419041581E-2,8.808464929E-3,-3.408575892E-2,3.795781760E-2
3.088720001E-1,1.857937699E-2,1.015325144E-2,-3.558206141E-2,4.140488930E-2
3.188360000E-1,1.324138986E-2,1.374642484E-2,-4.007272303E-2,4.438605336E-2
3.287990000E-1,1.165551991E-2,7.063966412E-3,-3.543120325E-2,3.796209859E-2
3.387630000E-1,7.606501230E-3,9.849799220E-3,-3.782563806E-2,3.982030010E-2
3.487270001E-1,1.488459907E-2,9.593453631E-4,-3.872377038E-2,4.149701225E-2
3.586900000E-1,1.358869620E-2,1.079053856E-2,-4.680696130E-2,4.991973570E-2
3.686540000E-1,1.362822886E-2,3.532019751E-3,-3.947279871E-2,4.190830017E-2
3.786180001E-1,8.838943541E-3,9.787996891E-3,-3.528209925E-2,3.766640855E-2
3.885810000E-1,6.219993923E-3,3.672279837E-3,-3.992186487E-2,4.057005371E-2
3.985450000E-1,1.136514170E-2,1.145288191E-2,-4.516038537E-2,4.795618163E-2
4.085080001E-1,2.050447681E-2,1.163878683E-2,-4.755598962E-2,5.307981798E-2
4.184720000E-1,1.561118414E-2,4.247010886E-3,-3.707836390E-2,4.045431054E-2
4.284360000E-1,1.530895161E-2,1.761130648E-2,-3.962190270E-2,4.598279341E-2
4.383990000E-1,2.130974347E-2,5.378049687E-3,-5.159524620E-2,5.608117345E-2
4.483630001E-1,1.744425884E-2,1.926783181E-2,-2.120902061E-2,3.354659543E-2
4.583270000E-1,1.329697496E-2,1.239281726E-2,-3.946987510E-2,4.345414253E-2
4.682900000E-1,1.765694674E-2,-9.870374110E-5,-7.015547812E-2,7.234340758E-2
4.782540001E-1,1.115805434E-2,1.463018581E-2,-1.761473715E-2,2.547201363E-2
4.882170000E-1,8.941151043E-3,7.448260956E-3,-3.438045859E-2,3.629651094E-2
4.981810000E-1,1.457461442E-2,1.644496968E-2,-1.761707604E-2,2.816412224E-2
5.081450000E-1,1.606781514E-2,1.186007653E-2,-7.737035751E-3,2.141723187E-2
5.181080000E-1,1.685966975E-2,3.969528526E-3,-8.587454796E-2,8.760390178E-2
5.280720000E-1,5.445744912E-3,1.586066839E-2,-1.971271813E-2,2.588065292E-2
5.380360000E-1,1.759719551E-3,4.814588232E-4,-4.594157338E-3,4.943146482E-3
5.479990001E-1,1.288825002E-2,2.102695294E-3,-1.078787899E-1,1.086662856E-1
5.579627501E-1,1.252099919E-2,9.666228625E-3,-1.342520714E-2,2.074723074E-2
5.679257500E-1,1.352737810E-2,1.329263523E-2,-1.971096396E-2,2.735335829E-2
5.778897500E-1,1.564781603E-2,1.492731573E-2,-8.841633260E-2,9.102267175E-2
5.878537500E-1,1.578072142E-2,-3.341501020E-4,1.636518717E-2,2.273680223E-2
5.978167501E-1,1.893748697E-2,-6.122135287E-3,-5.054450154E-2,5.432177822E-2
6.077807500E-1,2.561762935E-2,1.745667960E-3,-6.012457967E-2,6.537794254E-2
6.177447500E-1,1.284557905E-2,-6.345284223E-3,-9.940266609E-5,1.432764509E-2
6.277077501E-1,1.619662747E-2,-3.269406678E-3,-7.599041462E-2,7.776607792E-2
6.376717500E-1,1.843892047E-2,4.183299076E-3,-3.213161945E-2,3.728182866E-2
6.476347500E-1,1.243057748E-2,7.258107676E-3,-1.926014364E-2,2.404480228E-2
6.575987501E-1,1.854056153E-2,5.784664149E-3,-7.030458212E-2,7.293798070E-2
6.675627501E-1,7.365463469E-3,1.033439635E-2,-7.286215425E-3,1.463347995E-2
6.775257500E-1,6.691517048E-3,1.019826586E-2,-3.423193932E-2,3.634015267E-2
6.874897500E-1,8.166906601E-3,1.332741702E-2,-4.486100793E-2,4.750608846E-2
6.974537501E-1,1.029413736E-2,5.201043505E-3,-1.003382206E-3,1.157699846E-2
7.074167500E-1,1.136452957E-2,8.229339332E-3,-5.294536829E-2,5.477304612E-2
7.173807500E-1,1.420174935E-2,8.565572505E-3,-4.231571496E-2,4.544973541E-2
7.273437501E-1,1.846468933E-2,4.208789282E-3,-2.497930527E-3,1.910231181E-2
7.373077500E-1,2.038636762E-2,1.239290406E-2,-5.623442709E-2,6.108599550E-2
7.472717500E-1,1.736973882E-2,1.431080906E-2,-1.701598227E-2,2.821437108E-2
7.572347501E-1,1.458751484E-2,7.433729712E-3,-2.001034141E-2,2.585478079E-2
7.671987501E-1,1.458079511E-2,1.319948177E-2,-5.548656821E-2,5.886922080E-2
7.771627500E-1,2.069578126E-2,8.767835917E-3,-4.742676616E-3,2.297135804E-2
7.871257500E-1,2.165600827E-2,7.097332086E-3,-3.737423301E-2,4.377428595E-2
7.970897501E-1,1.460693399E-2,1.385145089E-2,-5.174435019E-2,5.552209461E-2
8.070527500E-1,1.057068782E-2,2.271917369E-3,-2.165867150E-2,2.420741830E-2
8.170167500E-1,9.958292479E-3,1.940509063E-2,-5.099941492E-2,5.546769739E-2
8.269807501E-1,1.180285147E-2,1.099605449E-2,-4.530948937E-2,4.809542955E-2
8.369437500E-1,1.349270593E-2,9.612680920E-3,-2.255504966E-2,2.798547861E-2
8.469077500E-1,7.455944563E-3,1.135844481E-2,-4.875057578E-2,5.060853700E-2
8.568717500E-1,1.750949184E-2,1.091974832E-2,-2.569851279E-2,3.295810625E-2
8.668347500E-1,2.332172470E-2,1.094967876E-2,-2.824380577E-2,3.822971190E-2
8.767987500E-1,9.624535237E-3,6.584924133E-3,-4.425991416E-2,4.577043703E-2
8.867617500E-1,7.634823681E-3,5.280451435E-3,-3.557855308E-2,3.676964970E-2
8.967257501E-1,1.310838398E-2,8.841401199E-4,-4.306415856E-2,4.502369584E-2
9.066897500E-1,1.843780585E-2,1.898362515E-3,-4.351439416E-2,4.729755770E-2
9.166527500E-1,1.580775565E-2,1.744928836E-2,-2.091081262E-2,3.149007601E-2
9.266167501E-1,1.600113861E-2,8.288017055E-3,-5.010069788E-2,5.324291118E-2
9.365807500E-1,1.295008432E-2,1.268766768E-2,-3.333614588E-2,3.794707126E-2
9.465437500E-1,2.096442884E-2,1.331660424E-2,-3.228890955E-2,4.073589210E-2
9.565077500E-1,1.401949438E-2,1.375142239E-2,-5.010245204E-2,5.381359996E-2
9.664717501E-1,1.234566952E-2,7.208538819E-3,-2.989447474E-2,3.313696136E-2
9.764347500E-1,1.135506439E-2,1.031775920E-2,-2.375782192E-2,2.828122601E-2
9.863987500E-1,1.132266716E-2,1.236059362E-2,-4.306766689E-2,4.621483525E-2
9.963617501E-1,1.322286607E-2,1.251721677E-2,-2.839817226E-2,3.373397531E-2
1.006325750E0,2.813250767E-3,-1.801033784E-4,-3.408634365E-2,3.420271393E-2
1.016289750E0,1.304814395E-2,4.695346146E-3,-3.887638271E-2,4.127557957E-2
1.026252750E0,5.775852213E-3,1.022553764E-2,-2.091432095E-2,2.398605656E-2
1.036216750E0,1.534006977E-2,1.024365031E-2,-4.067440152E-2,4.466158362E-2
1.046180750E0,1.275597047E-2,3.077928638E-3,-4.052529752E-2,4.259680935E-2
1.056143750E0,2.008855705E-2,1.194379221E-2,-3.573408902E-2,4.269811957E-2
1.066107750E0,1.428834753E-2,7.910072221E-3,-3.573525846E-2,3.929039087E-2
1.076070750E0,1.410299079E-2,1.440659376E-2,-2.795202971E-2,3.446389789E-2
1.086034750E0,2.231568840E-2,5.142754074E-3,-3.723273039E-2,4.371171560E-2
1.095998750E0,1.485374131E-2,2.741626943E-3,-4.277179778E-2,4.536052066E-2
1.105961750E0,5.159551115E-3,1.347918425E-2,-3.468802214E-2,3.757084316E-2
1.115925750E0,1.603359979E-2,1.049474711E-3,-3.124459684E-2,3.513406539E-2
1.125889750E0,1.761313374E-2,7.355404431E-3,-3.139370084E-2,3.674083432E-2
1.135852750E0,1.937357962E-2,1.752775982E-2,-2.959802091E-2,3.947911845E-2
1.145816750E0,1.216955412E-2,1.204813303E-2,-4.366934538E-2,4.690700676E-2
1.155779750E0,9.386941851E-3,1.262602980E-2,-3.558615446E-2,3.890894107E-2
1.165743750E0,1.879938304E-2,5.853720680E-3,-1.552786589E-2,2.507583434E-2
1.175707750E0,1.129978993E-2,7.797627524E-3,-3.453716397E-2,3.716589758E-2
1.185670750E0,1.065636780E-2,8.303484768E-3,-2.780117154E-2,3.090972619E-2
1.195634750E0,1.368496969E-2,1.434630349E-2,-4.157370329E-2,4.605939236E-2
1.205598750E0,7.306945631E-3,1.105168983E-2,-4.322086394E-2,4.520591092E-2
1.215561750E0,1.430939294E-2,-1.310479799E-3,-2.930039763E-2,3.263417511E-2
1.225525750E0,1.474117327E-2,7.462298842E-3,-4.262444794E-2,4.571467659E-2
1.235488750E0,1.112825638E-2,4.340561768E-3,-3.918043792E-2,4.096077736E-2
1.245452750E0,1.960392794E-2,5.483710701E-3,-2.959919035E-2,3.592349013E-2
1.255416750E0,1.088529086E-2,5.957956435E-3,-4.636374235E-2,4.799566029E-2
1.265379750E0,1.439803764E-2,6.476860279E-3,-3.348934293E-2,3.702417179E-2
1.275343750E0,1.124204868E-2,5.708997524E-3,-3.304027677E-2,3.536433514E-2
1.285307750E0,1.029994346E-2,8.006501030E-3,-3.798058927E-2,4.015866103E-2
1.295270750E0,1.516800631E-2,3.281352357E-3,-4.426634610E-2,4.690783608E-2
1.305234750E0,6.568899108E-3,6.464179130E-3,-3.274031460E-2,3.401270715E-2
1.315198750E0,1.265871026E-2,8.502902230E-3,-3.648136318E-2,3.954025987E-2
1.325161750E0,1.166932482E-2,7.607437698E-3,-3.318938076E-2,3.599418350E-2
1.335125750E0,9.342804509E-3,7.182733412E-3,-4.291973233E-2,4.450823608E-2
1.345088750E0,1.293066517E-2,1.227207226E-2,-3.992654264E-2,4.372567514E-2
1.355052750E0,1.039931415E-2,9.592613094E-3,-3.214272916E-2,3.511864176E-2
1.365016750E0,9.381085499E-3,1.444993168E-3,-3.184218228E-2,3.322675643E-2
1.374979750E0,1.319304984E-2,8.989436254E-3,-3.423720181E-2,3.777634863E-2
1.384943750E0,1.402808705E-2,3.219878934E-3,-4.067381680E-2,4.314526880E-2
1.394907750E0,1.185288628E-2,1.339881244E-2,-3.064467251E-2,3.548401107E-2
1.404870750E0,1.134747671E-2,5.508328392E-3,-4.157253385E-2,4.344401547E-2
1.414834750E0,8.089769036E-3,1.331443895E-2,-3.094463468E-2,3.464518816E-2
1.424797750E0,1.679478850E-2,1.274349488E-2,-3.782914639E-2,4.330711141E-2
1.434761750E0,1.523675677E-2,1.389003337E-2,-3.767945766E-2,4.295152284E-2
1.444725750E0,1.478962750E-2,4.219378224E-3,-3.154455900E-2,3.509409405E-2
1.454688750E0,2.015767297E-2,4.908116274E-3,-3.827996671E-2,4.354052407E-2
1.464652750E0,1.163615101E-2,5.394577207E-3,-3.723448455E-2,3.938157327E-2
1.474616750E0,1.342230180E-2,8.871770175E-3,-3.558673918E-2,3.905486522E-2
1.484579750E0,1.138039471E-2,2.168302881E-3,-2.795144498E-2,3.025720076E-2
1.494543750E0,1.301045225E-2,1.719355490E-3,-3.154338956E-2,3.416450608E-2
1.504506750E0,1.265399137E-2,1.474411972E-2,-4.531416714E-2,4.930401918E-2
1.514470750E0,6.955619333E-3,1.207921464E-2,-3.977451503E-2,4.214617554E-2
1.524434750E0,9.530865583E-3,3.610783573E-3,-3.558381557E-2,3.701463343E-2
1.534397750E0,1.091170840E-2,8.813535562E-3,-3.139311612E-2,3.438417556E-2
1.544361750E0,1.448005398E-2,6.960904668E-3,-3.813027799E-2,4.137685653E-2
1.554326042E0,1.048751118E-2,1.895863744E-3,-2.884899259E-2,3.075461857E-2
1.564289042E0,1.387533768E-2,2.716410826E-3,-3.887813687E-2,4.136923265E-2
1.574253042E0,7.566178283E-3,1.195169052E-2,-3.408809781E-2,3.690648144E-2
1.584216042E0,1.450250180E-2,1.293318221E-2,-2.974595547E-2,3.553043241E-2
1.594180042E0,1.328278632E-2,4.978081863E-3,-3.423661709E-2,3.705886751E-2
1.604144042E0,2.059210739E-2,9.283368476E-3,-3.483654141E-2,4.151867573E-2
1.614107042E0,1.476051020E-2,9.410563689E-3,-3.199304044E-2,3.646897321E-2
1.624071042E0,1.128193765E-2,1.107243374E-2,-3.827938199E-2,4.141487645E-2
1.634035042E0,1.058131331E-2,9.470168743E-3,-3.678249478E-2,3.942841881E-2
1.643998042E0,6.581498031E-3,-3.439003341E-3,-3.199187100E-2,3.284239136E-2
1.653962042E0,1.228485391E-2,-2.439805549E-3,-3.004357874E-2,3.254976053E-2
1.663926042E0,3.305778187E-3,8.965773303E-3,-3.842614710E-2,3.959649027E-2
1.673889042E0,7.490292387E-3,7.680107625E-3,-3.049206018E-2,3.232420560E-2
1.683853042E0,9.008704657E-3,5.243947450E-3,-4.156844079E-2,4.285546657E-2
1.693816042E0,1.966166463E-2,1.096270708E-2,-3.722688317E-2,4.350405537E-2
1.703780042E0,1.408002220E-2,1.790780143E-2,-3.827353477E-2,4.453986800E-2
1.713744042E0,1.548258194E-2,1.075433607E-2,-3.153812706E-2,3.674261214E-2
1.723707042E0,1.409686949E-2,3.935367996E-3,-2.674691856E-2,3.048944905E-2
1.733671042E0,2.013950092E-2,-1.915547848E-3,-2.884314537E-2,3.523060964E-2
1.743635042E0,1.424951836E-2,3.163508121E-3,-3.033827841E-2,3.366701196E-2
1.753598042E0,1.786021058E-2,1.454768068E-2,-2.779240072E-2,3.609764082E-2
1.763562042E0,2.088186890E-2,1.291528425E-2,-3.557504475E-2,4.322546501E-2
1.773525042E0,1.167923768E-2,2.498643156E-3,-4.096325397E-2,4.266891124E-2
1.783489042E0,1.586821038E-2,7.960435934E-3,-2.629434407E-2,3.172634821E-2
1.793453042E0,8.892747061E-3,5.471614273E-3,-3.183399618E-2,3.350257939E-2
1.803416042E0,1.050476960E-2,4.960658988E-3,-3.707485557E-2,3.885232602E-2
1.813380042E0,1.209869318E-2,6.571923215E-3,-4.126730919E-2,4.350355571E-2
1.823344042E0,1.193959866E-2,3.185709268E-3,-3.453190148E-2,3.667635450E-2
1.833307042E0,8.934417609E-3,8.928890163E-3,-2.929279625E-2,3.190010674E-2
1.843271042E0,1.095968754E-2,4.228222137E-3,-3.557855308E-2,3.746766677E-2
1.853234042E0,1.315623065E-2,9.992252011E-4,-3.482952476E-2,3.724487415E-2
1.863198042E0,1.149884651E-2,1.131660981E-2,-3.003948569E-2,3.409779801E-2
1.873162042E0,1.640738762E-2,9.586656243E-3,-3.003890097E-2,3.554492816E-2
1.883125042E0,1.647858661E-2,1.608459391E-3,-2.899166465E-2,3.338633818E-2
1.893089042E0,1.631598833E-2,5.187339094E-3,-2.928987265E-2,3.392663558E-2
1.903053042E0,1.389866258E-2,5.995488251E-3,-3.901905477E-2,4.185218437E-2
1.913016042E0,1.605338439E-2,1.208357264E-2,-2.854025960E-2,3.490372897E-2
1.922980042E0,1.609911145E-2,1.369823556E-2,-2.434839070E-2,3.224387037E-2
1.932943042E0,1.442362835E-2,8.049569428E-3,-2.794150472E-2,3.245865537E-2
1.942907042E0,9.694866277E-3,1.318552611E-2,-3.647376180E-2,3.997729144E-2
1.952871042E0,1.331937253E-2,1.030582722E-2,-2.599672079E-2,3.097491326E-2
1.962834042E0,1.361409048E-2,1.362008387E-2,-2.674691856E-2,3.295827357E-2
1.972798042E0,7.600548947E-3,2.860384807E-3,-4.500835776E-2,4.573513326E-2
1.982762042E0,9.469086095E-3,9.355316637E-3,-3.662637413E-2,3.897020429E-2
1.992725042E0,1.154802251E-2,1.280455261E-2,-4.650641441E-2,4.959999973E-2
2.002689042E0,1.304566346E-2,9.164158367E-3,-3.932194054E-2,4.243095735E-2
2.012653042E0,1.432102798E-2,7.755509298E-3,-3.528151453E-2,3.885904057E-2
2.022616042E0,1.433671954E-2,8.658977207E-3,-3.378462732E-2,3.770836056E-2
2.032580042E0,1.217868126E-2,7.567201545E-3,-2.929279625E-2,3.261365862E-2
2.042543042E0,1.634472191E-2,7.151729465E-3,-4.066972375E-2,4.441085001E-2
2.052507042E0,1.923146944E-2,4.700613208E-3,-4.441135705E-2,4.862421018E-2
2.062471042E0,1.200974698E-2,1.007852585E-2,-3.752567589E-2,4.066923969E-2
2.072434042E0,2.254986939E-2,1.215852664E-2,-3.153754234E-2,4.063179736E-2
2.082398042E0,1.578772437E-2,4.874385148E-3,-4.455929160E-2,4.752412376E-2
2.092362042E0,1.441403526E-2,7.107226672E-3,-2.854259849E-2,3.275602253E-2
2.102325042E0,1.201624287E-2,1.085027609E-2,-2.809236288E-2,3.242374803E-2
2.112289042E0,4.633735679E-3,1.726966007E-2,-3.123524129E-2,3.599101226E-2
2.122252042E0,1.228783233E-2,2.281656638E-3,-3.617321491E-2,3.827137648E-2
2.132216042E0,8.402727549E-3,9.529591072E-3,-4.141173542E-2,4.331686469E-2
2.142180042E0,1.182385577E-2,9.603202036E-3,-4.021364093E-2,4.300188335E-2
2.152143042E0,1.780742118E-2,4.395936728E-3,-3.182931840E-2,3.673600440E-2
2.162107042E0,1.071344211E-2,8.435485661E-3,-3.048153520E-2,3.339250287E-2
2.172071042E0,1.440511369E-2,3.858650699E-3,-3.377468705E-2,3.692053590E-2
2.182034042E0,1.825439970E-2,8.799502244E-3,-3.976223588E-2,4.462835142E-2
2.191998042E0,9.811458844E-3,1.179473846E-2,-3.422433794E-2,3.750581138E-2
2.201961042E0,2.353789809E-2,1.215255152E-2,-3.377585649E-2,4.292465069E-2
2.211925042E0,1.327813596E-2,1.199578218E-2,-3.722045124E-2,4.129854325E-2
2.221889042E0,1.510873016E-2,5.644801492E-3,-3.003597736E-2,3.409248373E-2
2.231852042E0,8.176015466E-3,3.268410824E-3,-2.150313556E-2,2.323606200E-2
2.241816042E0,1.066038776E-2,6.379787363E-3,-3.677080035E-2,3.881284984E-2
2.251780042E0,1.542359815E-2,7.676325208E-3,-3.677021563E-2,4.060618310E-2
2.261743042E0,1.980593554E-2,9.758984651E-3,-4.515278399E-2,5.026218027E-2
2.271707042E0,1.356184469E-2,3.050291408E-3,-2.928519487E-2,3.241682507E-2
2.281670042E0,1.879544074E-2,1.766982889E-3,-2.958515704E-2,3.509518967E-2
2.291634042E0,1.791446634E-2,5.033073099E-3,-2.838823199E-2,3.394335936E-2
2.301598042E0,1.274925074E-2,3.242463805E-3,-4.081298053E-2,4.288072231E-2
2.311561042E0,1.408089928E-2,5.293539148E-3,-3.257951617E-2,3.588479003E-2
2.321525042E0,1.043415990E-2,8.801831994E-3,-3.916465044E-2,4.147546001E-2
2.331489042E0,1.402023442E-2,1.274080882E-2,-3.766717851E-2,4.216291640E-2
2.341452042E0,1.570996097E-2,3.381572720E-3,-4.215784013E-2,4.511675290E-2
2.351416042E0,1.769245030E-2,3.685591388E-3,-2.868643999E-2,3.390454573E-2
2.361380042E0,1.596232315E-2,5.215177322E-3,-3.946402788E-2,4.288826566E-2
2.371343042E0,1.427204385E-2,4.181234278E-3,-4.081005692E-2,4.343540839E-2
2.381307042E0,1.065247575E-2,6.200679839E-3,-3.572180986E-2,3.778850844E-2
2.391270042E0,1.125157781E-2,1.178918361E-2,-3.078325152E-2,3.483089760E-2
2.401234042E0,8.919466096E-3,7.644923832E-3,-3.781979084E-2,3.960225139E-2
2.411198042E0,1.376108856E-2,8.742957842E-3,-3.991426349E-2,4.311560390E-2
2.421161042E0,1.471425324E-2,7.260770900E-3,-3.991426349E-2,4.315526007E-2
2.431125042E0,1.355143847E-2,2.192815505E-3,-3.407523394E-2,3.673651443E-2
2.441089042E0,2.051967043E-2,-4.901200114E-3,-3.168021441E-2,3.806198395E-2
2.451052042E0,1.524963435E-2,8.453977481E-4,-3.138142169E-2,3.490071163E-2
2.461016042E0,1.813296034E-2,9.225261770E-3,-4.170994341E-2,4.640720941E-2
2.470979042E0,1.920690657E-2,6.940297801E-3,-3.991309404E-2,4.483445182E-2
2.480943042E0,4.567552507E-3,8.946998259E-3,-3.646966875E-2,3.782787401E-2
2.490907042E0,1.711215070E-2,4.873343613E-3,-3.961196244E-2,4.342444873E-2
2.500870042E0,1.414844376E-2,5.372348651E-3,-3.287480056E-2,3.619106385E-2
2.510834042E0,1.332517864E-2,1.473911304E-2,-3.347355545E-2,3.892660726E-2
2.520798042E0,1.215130898E-2,1.366887158E-2,-3.631764114E-2,4.066280140E-2
2.530761042E0,2.172570891E-2,3.399845269E-3,-3.272394240E-2,3.942615606E-2
2.540725042E0,1.635340594E-2,1.326848349E-2,-3.511779249E-2,4.094808773E-2
2.550688042E0,1.060722378E-2,7.053185608E-3,-2.703460157E-2,2.988528577E-2
2.560655917E0,1.071850817E-2,5.580436438E-3,-3.152584791E-2,3.376250546E-2
2.570619917E0,2.049934222E-2,8.422347698E-3,-4.005868971E-2,4.578053728E-2
2.580582917E0,1.451024023E-2,-2.405617610E-3,-3.916055739E-2,4.183160674E-2
2.590546917E0,1.107352552E-2,5.704379138E-3,-3.736429274E-2,3.938595284E-2
2.600510917E0,1.253294944E-2,5.428089062E-3,-3.407055616E-2,3.670615439E-2
2.610473917E0,1.398131389E-2,-7.445972320E-3,-3.451903760E-2,3.798004211E-2
2.620437917E0,1.730497177E-2,-1.936890185E-5,-3.691639602E-2,4.077110151E-2
2.630400917E0,1.674187120E-2,4.356815200E-3,-3.077915847E-2,3.530762929E-2
2.640364917E0,8.710615430E-3,4.563112278E-3,-3.077974319E-2,3.231237234E-2
2.650328917E0,1.332249714E-2,7.175502051E-3,-2.179900467E-2,2.653626508E-2
2.660291917E0,1.779665865E-2,3.583612293E-4,-2.584235430E-2,3.137955955E-2
2.670255917E0,1.531801023E-2,4.863604344E-3,-4.170994341E-2,4.469916626E-2
2.680219917E0,1.756790918E-2,1.180170944E-2,-4.964344561E-2,5.396650323E-2
2.690182917E0,1.014829044E-2,5.021488303E-3,-3.497453570E-2,3.676168238E-2
2.700146917E0,1.153911007E-2,1.010948868E-2,-3.557270586E-2,3.873977575E-2
2.710110917E0,1.070611938E-2,9.404287068E-3,-4.515278399E-2,4.734802540E-2
2.720073917E0,1.685859167E-2,6.848770604E-3,-2.988278031E-2,3.498711665E-2
2.730037917E0,1.574284242E-2,4.625604395E-3,-3.422433794E-2,3.795442808E-2
2.740000917E0,1.012766073E-2,5.705868350E-3,-3.946344316E-2,4.113988079E-2
2.749964917E0,1.010322120E-2,1.234911846E-2,-3.572064042E-2,3.912211596E-2
2.759928917E0,1.634736230E-2,-9.623968787E-4,-3.796480179E-2,4.134596276E-2
2.769891917E0,1.478685007E-2,4.084033454E-3,-4.035923660E-2,4.317636209E-2
2.779855917E0,7.076428290E-3,2.597360602E-3,-4.065685987E-2,4.134975664E-2
2.789819917E0,9.105978571E-3,8.345447676E-3,-3.511837721E-2,3.722721801E-2
2.799782917E0,1.549597115E-2,-2.441806393E-3,-3.436759472E-2,3.777855353E-2
2.809746917E0,7.163816756E-3,4.776499104E-3,-2.748191357E-2,2.879914560E-2
2.819709917E0,4.347180999E-3,1.424891537E-2,-3.331918895E-2,3.649791671E-2
2.829673917E0,9.191658553E-3,7.061015395E-3,-4.155148387E-2,4.313780636E-2
2.839637917E0,2.267979635E-2,6.807154873E-3,-4.184969187E-2,4.808437615E-2
2.849600917E0,2.107825769E-2,4.860589374E-3,-3.152000070E-2,3.822863743E-2
2.859564917E0,1.545473915E-2,1.065424819E-2,-2.747782052E-2,3.327750872E-2
2.869528917E0,1.704109789E-2,7.149682939E-4,-3.720934153E-2,4.093220363E-2
2.879491917E0,3.247013669E-3,1.806917544E-3,-3.047510326E-2,3.070081379E-2
2.889455917E0,9.865522748E-3,1.107664556E-2,-2.882911205E-2,3.242126336E-2
2.899418917E0,1.410413283E-2,8.423571959E-3,-3.212226391E-2,3.607939808E-2
2.909382917E0,1.380382806E-2,2.425644323E-3,-2.628440380E-2,2.978756960E-2
2.919346917E0,1.828778365E-2,2.708311519E-3,-3.077389598E-2,3.590000913E-2
2.929309917E0,1.946189085E-2,8.813937558E-3,-3.840685129E-2,4.394925388E-2
2.939273917E0,1.559626461E-2,6.444965545E-3,-3.870622873E-2,4.222503041E-2
2.949237917E0,1.499450389E-2,8.349294048E-3,-3.466404855E-2,3.867999638E-2
2.959200917E0,1.414510902E-2,6.014774926E-3,-3.122237742E-2,3.480084020E-2
2.969164917E0,1.159712541E-2,5.913901320E-3,-3.077506542E-2,3.341514924E-2
2.979127917E0,1.793933071E-2,8.597508352E-3,-3.511428416E-2,4.035777110E-2
2.989091917E0,1.871361170E-2,7.864824822E-3,-4.125152171E-2,4.597545840E-2
2.999055917E0,1.708776598E-2,7.176927309E-3,-3.436584055E-2,3.904498724E-2
3.009018917E0,1.652526383E-2,6.965842824E-3,-3.765899241E-2,4.171099400E-2
3.018982917E0,1.733078174E-2,6.744772391E-3,-3.391618967E-2,3.868017415E-2
3.028946917E0,1.205108862E-2,4.101821780E-4,-3.167144358E-2,3.388919186E-2
3.038909917E0,8.738385136E-3,1.038520318E-3,-3.436642528E-2,3.547518972E-2
3.048873917E0,1.534810969E-2,3.313827245E-3,-3.631237864E-2,3.956178415E-2
3.058836917E0,1.549070866E-2,2.046342753E-3,-4.275074780E-2,4.551676626E-2
3.068800917E0,1.336528231E-2,7.434643339E-3,-3.197374463E-2,3.544326507E-2
3.078764917E0,1.682981697E-2,9.187282277E-3,-3.511779249E-2,4.001135144E-2
3.088727917E0,9.844865631E-3,4.009088594E-4,-3.766133130E-2,3.892888365E-2
3.098691917E0,8.487434518E-3,4.195980225E-3,-4.799160719E-2,4.891663475E-2
3.108655917E0,1.164433254E-2,7.911721319E-3,-2.493954420E-2,2.863855233E-2
3.118618917E0,9.081602991E-3,1.448905321E-2,-2.943020582E-2,3.403740869E-2
3.128582917E0,1.660058328E-2,-7.541080937E-4,-3.482016921E-2,3.858227868E-2
3.138546917E0,7.437224337E-3,4.678110564E-3,-3.137908280E-2,3.258594577E-2
3.148509917E0,1.507435950E-2,8.414335186E-3,-3.422433794E-2,3.833200566E-2
3.158473917E0,1.833239151E-2,3.882140061E-3,-4.440317094E-2,4.819532322E-2
3.168436917E0,2.157899405E-2,1.276444436E-2,-3.587149858E-2,4.376469393E-2
3.178400917E0,4.609574801E-3,1.232324453E-2,-2.838764727E-2,3.128848116E-2
3.188364917E0,1.458819092E-2,6.665003579E-3,-3.946285844E-2,4.259759128E-2
3.198327917E0,1.799465542E-2,1.444105122E-2,-2.658904374E-2,3.520410247E-2
3.208291917E0,1.759354556E-2,8.353533279E-3,-3.901320755E-2,4.360441179E-2
3.218255917E0,1.496771176E-2,1.772951617E-2,-2.733748734E-2,3.585674766E-2
3.228218917E0,2.067299996E-2,-3.003458865E-3,-4.036099076E-2,4.544670800E-2
3.238182917E0,6.895470670E-3,1.954842964E-3,-4.395352006E-2,4.453404150E-2
3.248145917E0,8.525048560E-3,5.759708416E-3,-3.856414139E-2,3.991295147E-2
3.258109917E0,1.921388211E-2,1.012545889E-2,-4.290511429E-2,4.808894900E-2
3.268073917E0,1.046232247E-2,3.872492155E-3,-3.736604691E-2,3.899586963E-2
3.278036917E0,3.895734837E-3,-6.269494258E-4,-3.317476273E-2,3.340860215E-2
3.288000917E0,8.175622607E-3,2.974186242E-3,-3.541950881E-2,3.647229350E-2
3.297964917E0,1.341144791E-2,1.084024446E-2,-3.437227249E-2,3.845557113E-2
3.307927917E0,1.347561653E-2,4.843961354E-3,-3.841562212E-2,4.099775878E-2
3.317891917E0,1.442287004E-2,1.102080465E-2,-2.958281815E-2,3.470764246E-2
3.327854917E0,1.979159159E-2,6.925259493E-3,-3.796421707E-2,4.336989848E-2
3.337818917E0,1.326153992E-2,9.423253974E-3,-2.583943069E-2,3.053428131E-2
3.347782917E0,1.538090434E-2,7.119496688E-3,-3.317476273E-2,3.725351438E-2
3.357745917E0,1.252743113E-2,8.860651329E-3,-4.709522903E-2,4.953189144E-2
3.367709917E0,1.660367591E-2,1.654088686E-2,-3.766425490E-2,4.436078324E-2
3.377673917E0,1.764882916E-2,-5.508259870E-5,-3.422024488E-2,3.850336823E-2
3.387636917E0,1.870358007E-2,7.614262495E-3,-4.005927444E-2,4.486141292E-2
3.397600917E0,1.376270112E-2,6.411051694E-3,-2.793390334E-2,3.179334021E-2
3.407563917E0,1.080631234E-2,2.107108114E-3,-2.718487501E-2,2.932974123E-2
3.417527917E0,1.821861292E-2,8.127456168E-3,-3.466931105E-2,3.999918160E-2
3.427491917E0,6.498513250E-3,1.350304820E-2,-3.841152906E-2,4.123115994E-2
3.437454917E0,1.105390994E-2,1.381200045E-2,-3.107678175E-2,3.575928754E-2
3.447418917E0,7.391876439E-3,8.126515131E-3,-4.559483349E-2,4.689956212E-2
3.457382917E0,1.055584137E-2,1.033742046E-3,-3.436876416E-2,3.596812978E-2
3.467345917E0,1.352589802E-2,3.605886530E-3,-3.002720654E-2,3.312982746E-2
3.477309917E0,1.731338171E-2,2.183469096E-3,-3.706374586E-2,4.096635181E-2
3.487273917E0,1.795888234E-2,8.530338462E-3,-3.317300856E-2,3.867475438E-2
3.497236917E0,1.194353183E-2,1.384941350E-2,-2.868293166E-2,3.401712474E-2
3.507200917E0,6.963449121E-3,3.922823891E-3,-2.928227127E-2,3.035341136E-2
3.517163917E0,1.600527277E-2,9.349862281E-3,-3.541892409E-2,3.997610368E-2
3.527127917E0,1.187260693E-2,2.132497821E-3,-3.736429274E-2,3.926317249E-2
3.537091917E0,1.918923244E-2,1.021768958E-2,-3.077740431E-2,3.768124783E-2
3.547054917E0,2.126592133E-2,7.430130020E-3,-3.062713087E-2,3.801930282E-2
3.557015292E0,1.753457548E-2,2.016832586E-3,-3.886176467E-2,4.268214737E-2
3.566979292E0,1.058184778E-2,7.004233450E-4,-3.916055739E-2,4.057111473E-2
3.576942292E0,2.371473982E-2,1.081406903E-2,-3.631647170E-2,4.470144394E-2
3.586906292E0,4.596345476E-3,9.478848204E-3,-3.422082961E-2,3.580558803E-2
3.596869292E0,9.936141581E-3,-8.456124505E-3,-3.511837721E-2,3.746376074E-2
3.606833292E0,1.705887251E-2,7.100566328E-3,-3.751515090E-2,4.181877235E-2
3.616797292E0,2.018549292E-2,1.026739092E-2,-4.424880445E-2,4.970744548E-2
3.626760292E0,1.286256795E-2,3.918995792E-3,-4.185378492E-2,4.396070398E-2
3.636724292E0,1.205765303E-2,7.681669928E-3,-4.140413404E-2,4.380293785E-2
3.646688292E0,1.574114765E-2,1.162115838E-2,-4.095331371E-2,4.538732152E-2
3.656651292E0,1.877538662E-2,8.691283073E-3,-3.781043530E-2,4.310084177E-2
3.666615292E0,1.673250651E-2,5.038308185E-3,-2.748191357E-2,3.256711373E-2
3.676578292E0,2.256647000E-2,8.312593633E-3,-3.885825634E-2,4.569801820E-2
3.686542292E0,8.778977604E-3,1.146780602E-2,-3.856004834E-2,4.117594384E-2
3.696506292E0,1.130921857E-2,3.304690970E-3,-3.182581007E-2,3.393672927E-2
3.706469292E0,1.376294780E-2,7.121963482E-3,-3.556802809E-2,3.879723854E-2
3.716433292E0,1.666508538E-2,1.207646462E-2,-3.676670730E-2,4.213498350E-2
3.726397292E0,1.987022293E-2,2.156306952E-3,-2.973133743E-2,3.582496119E-2
3.736360292E0,2.197566368E-2,4.398577111E-3,-3.512247026E-2,4.166371553E-2
3.746324292E0,9.056501077E-3,1.539302361E-2,-3.182931840E-2,3.649754646E-2
3.756287292E0,9.457802796E-3,1.559099754E-2,-2.688900590E-2,3.248919630E-2
3.766251292E0,1.600426778E-2,1.849264177E-3,-4.126087725E-2,4.429465382E-2
3.776215292E0,1.466113037E-2,2.813625354E-3,-3.632231891E-2,3.927054981E-2
3.786178292E0,1.139732880E-2,5.356634259E-3,-3.168196857E-2,3.409310439E-2
3.796142292E0,1.007856240E-2,1.217393040E-2,-3.602294147E-2,3.933744162E-2
3.806106292E0,1.420933703E-2,7.172925621E-3,-2.854084432E-2,3.267928878E-2
3.816069292E0,1.284289298E-2,3.501595957E-3,-3.782329917E-2,4.009741930E-2
3.826033292E0,1.488946414E-2,5.229283730E-3,-3.827178061E-2,4.139771421E-2
3.835997292E0,1.137361103E-2,5.739919245E-3,-3.153578818E-2,3.401193374E-2
3.845960292E0,1.413175636E-2,1.129394271E-2,-3.288181722E-2,3.752963607E-2
3.855924292E0,1.503538415E-2,1.109643473E-2,-2.824205160E-2,3.386454073E-2
3.865887292E0,1.542463055E-2,2.419614382E-3,-3.093703330E-2,3.465362594E-2
3.875851292E0,1.505608695E-2,4.871150907E-3,-3.363084555E-2,3.716783068E-2
3.885815292E0,1.275907680E-2,-4.837840050E-4,-3.123524129E-2,3.374416078E-2
3.895778292E0,1.344886095E-2,7.450942453E-3,-4.171286702E-2,4.445617707E-2
3.905742292E0,1.015887025E-2,9.631533623E-3,-3.857115805E-2,4.103295405E-2
3.915706292E0,1.264763252E-2,1.808055924E-2,-3.138785362E-2,3.836751994E-2
3.925669292E0,1.520509045E-2,7.422683956E-3,-3.408166587E-2,3.805063681E-2
3.935633292E0,1.507487113E-2,1.425965049E-2,-3.078851402E-2,3.712845226E-2
3.945596292E0,1.281399495E-2,1.026216954E-2,-4.306357384E-2,4.608667900E-2
3.955560292E0,1.459202359E-2,6.074288618E-3,-4.021948814E-2,4.321378670E-2
3.965524292E0,1.140448250E-2,6.644383008E-3,-3.303442955E-2,3.557363606E-2
3.975487292E0,1.945028321E-2,1.795445125E-2,-2.106050134E-2,3.382632929E-2
3.985451292E0,1.212625732E-2,8.665966457E-3,-3.333497643E-2,3.651528098E-2
3.995415292E0,1.384278513E-2,-2.710732631E-4,-2.764738977E-2,3.092045184E-2
4.005378292E0,1.159395056E-2,5.746159321E-3,-3.662988245E-2,3.884824739E-2
4.015342292E0,1.363729661E-2,4.699402652E-3,-3.109198451E-2,3.427494340E-2
4.025305292E0,1.108272575E-2,8.811580399E-3,-3.887521327E-2,4.137333641E-2
4.035269292E0,1.484121548E-2,3.134719720E-3,-3.109139979E-2,3.459426665E-2
4.045233292E0,1.497785760E-2,8.579902751E-3,-3.378638148E-2,3.794035481E-2
4.055196292E0,1.580277639E-2,6.869107950E-3,-3.737774134E-2,4.115832763E-2
4.065160292E0,2.150862646E-2,3.276469018E-3,-3.797649622E-2,4.376723120E-2
4.075124292E0,1.987791111E-2,1.167070897E-2,-3.812735438E-2,4.455369738E-2
4.085087292E0,5.634317617E-3,7.659669779E-4,-2.435599208E-2,2.501092942E-2
4.095051292E0,1.123070142E-2,7.560769608E-3,-2.645163417E-2,2.971502720E-2
4.105015292E0,9.298699144E-3,1.239890202E-2,-3.423486292E-2,3.757957446E-2
4.114978292E0,1.142758814E-2,1.558030810E-2,-2.884489954E-2,3.471835250E-2
4.124942292E0,1.269869973E-2,1.187550313E-2,-3.333614588E-2,3.759764848E-2
4.134905292E0,1.597259232E-2,6.258201823E-3,-3.647902429E-2,4.031138808E-2
4.144869292E0,1.932132927E-2,8.268995332E-3,-3.737715662E-2,4.288055369E-2
4.154833292E0,1.345173431E-2,5.777387107E-3,-3.183984339E-2,3.504430032E-2
4.164796292E0,1.811017904E-2,9.861023133E-3,-3.004357874E-2,3.643947017E-2
4.174760292E0,2.528745353E-2,1.969127529E-3,-3.767828822E-2,4.542010758E-2
4.184724292E0,1.273591178E-2,3.945765076E-3,-3.228890955E-2,3.493345375E-2
4.194687292E0,2.135299003E-2,8.417989695E-3,-2.330758631E-2,3.271171523E-2
4.204651292E0,2.082707866E-2,1.114362359E-2,-2.794676721E-2,3.659193012E-2
4.214614292E0,2.169185445E-2,-5.466141645E-4,-2.959334314E-2,3.669606647E-2
4.224578292E0,6.851931754E-3,6.581607666E-3,-2.869521081E-2,3.022716745E-2
4.234542292E0,1.210326588E-2,7.673054421E-3,-3.213688195E-2,3.518727029E-2
4.244505292E0,1.501804350E-2,6.998176100E-3,-3.183867395E-2,3.589174359E-2
4.254469292E0,1.625040815E-2,3.298693006E-3,-2.644988000E-2,3.121783613E-2
4.264433292E0,1.254797404E-2,9.152061939E-3,-3.887462854E-2,4.186225788E-2
4.274396292E0,9.393497128E-3,9.289138033E-3,-4.501186609E-2,4.691048884E-2
4.284360292E0,6.825870532E-3,1.913400823E-3,-3.258770227E-2,3.334984184E-2
4.294323292E0,1.716527356E-2,5.771448528E-3,-3.378579676E-2,3.833322707E-2
4.304287292E0,2.109593181E-2,5.528898714E-3,-3.842614710E-2,4.418343401E-2
4.314251292E0,1.616521239E-2,9.127439680E-3,-2.734918177E-2,3.305453056E-2
4.324214292E0,1.309575765E-2,9.050932517E-3,-3.378696620E-2,3.734939535E-2
4.334178292E0,1.340071279E-2,7.383708609E-3,-2.809879482E-2,3.199438273E-2
4.344142292E0,7.069256315E-3,1.416778525E-2,-4.321677089E-2,4.602596886E-2
4.354105292E0,1.204702298E-2,7.725725044E-3,-3.663105190E-2,3.932749106E-2
4.364069292E0,1.325015155E-2,8.228443977E-3,-3.064408779E-2,3.438508286E-2
4.374032292E0,1.806075180E-2,5.829760800E-3,-3.513650358E-2,3.993433047E-2
4.383996292E0,9.809115389E-3,1.050492492E-2,-3.977626920E-2,4.229330660E-2
4.393960292E0,1.476468547E-2,6.809649076E-3,-3.573525846E-2,3.926036111E-2
4.403923292E0,1.301913628E-2,6.663162620E-3,-3.813203216E-2,4.084051324E-2
4.413887292E0,1.175718837E-2,7.910455945E-3,-4.127549529E-2,4.364027158E-2
4.423851292E0,7.490429431E-3,1.261196451E-2,-2.989973724E-2,3.330409087E-2
4.433814292E0,1.696869748E-2,6.889271708E-3,-3.603872895E-2,4.042510041E-2
4.443778292E0,1.532306716E-2,6.305395248E-3,-2.930273652E-2,3.366310687E-2
4.453742292E0,1.436722099E-2,9.732946269E-3,-2.451386690E-2,3.003459593E-2
4.463705292E0,1.401984613E-2,4.076048350E-3,-2.586165011E-2,2.969840403E-2
4.473669292E0,1.248387851E-2,1.183864283E-2,-4.606962740E-2,4.917734494E-2
4.483632292E0,8.577372003E-3,7.877177065E-3,-3.948507786E-2,4.116664429E-2
4.493596292E0,9.765727222E-3,7.468694234E-3,-3.993531346E-2,4.178492651E-2
4.503560292E0,1.240746271E-2,2.770319413E-3,-4.173157811E-2,4.362504341E-2
4.513523292E0,1.328203715E-2,1.003420578E-2,-3.230118871E-2,3.633819737E-2
4.523487292E0,1.594084833E-2,1.117014620E-2,-3.739002049E-2,4.215324950E-2
4.533451292E0,1.324643766E-2,1.256824287E-2,-3.873663425E-2,4.282470867E-2
4.543414292E0,1.455325381E-2,1.158706181E-2,-3.289818943E-2,3.779349237E-2
4.553378292E0,9.968168791E-3,1.110269308E-2,-3.289760470E-2,3.612321384E-2
4.563344417E0,8.066032995E-3,3.693503402E-3,-4.112873018E-2,4.207463965E-2
4.573308417E0,7.429115893E-3,9.809133662E-3,-3.663806856E-2,3.864917766E-2
4.583272417E0,1.606627111E-2,6.931463024E-3,-3.618900239E-2,4.019719071E-2
4.593235417E0,2.013989835E-2,1.576173624E-2,-3.184802949E-2,4.084537694E-2
4.603199417E0,1.927903289E-2,1.178861716E-2,-3.544055879E-2,4.203196178E-2
4.613163417E0,1.849055870E-2,1.105637217E-2,-3.035172701E-2,3.722057843E-2
4.623126417E0,2.355502403E-2,8.250604011E-3,-3.439566135E-2,4.249674274E-2
4.633090417E0,1.679258209E-2,6.543491129E-3,-4.038379490E-2,4.422283324E-2
4.643053417E0,9.602270136E-3,1.333572647E-2,-3.260056615E-2,3.650811013E-2
4.653017417E0,1.693705400E-2,9.733741125E-3,-3.604340672E-2,4.099678869E-2
4.662981417E0,1.034080088E-2,4.445811650E-3,-3.409745336E-2,3.590729354E-2
4.672944417E0,9.592795819E-3,1.508835627E-2,-2.107453465E-2,2.763722557E-2
4.682908417E0,1.737439832E-2,8.845480545E-3,-3.095340550E-2,3.658176533E-2
4.692872417E0,1.595365739E-2,8.630531416E-3,-4.427453220E-2,4.784599730E-2
4.702835417E0,7.921670722E-3,7.521383129E-3,-4.068141818E-2,4.212246261E-2
4.712799417E0,8.085675985E-3,5.460970514E-3,-3.648896456E-2,3.777095299E-2
4.722763417E0,1.521463329E-2,2.297599437E-3,-4.082935274E-2,4.363255750E-2
4.732726417E0,1.223872942E-2,1.181224813E-2,-2.720767915E-2,3.208696790E-2
4.742690417E0,1.830897524E-2,1.156614888E-2,-3.633986056E-2,4.230342586E-2
4.752653417E0,2.039095860E-2,1.052397405E-2,-4.247709811E-2,4.827886790E-2
4.762617417E0,1.680291521E-2,9.035122194E-3,-3.903542697E-2,4.344808341E-2
4.772581417E0,1.230139056E-2,9.974815431E-3,-2.706091404E-2,3.135465231E-2
4.782544417E0,1.172213249E-2,8.784148735E-3,-3.095165133E-2,3.424287341E-2
4.792508417E0,1.360531508E-2,1.580584617E-2,-3.783733249E-2,4.320408663E-2
4.802472417E0,7.716903971E-3,7.340393532E-3,-3.499383152E-2,3.657868544E-2
4.812435417E0,9.970160499E-3,7.089520572E-3,-3.783850193E-2,3.976704202E-2
4.822399417E0,6.892967331E-3,1.348334582E-2,-4.053289890E-2,4.326926746E-2
4.832362417E0,6.935853004E-3,4.295775751E-3,-3.574344456E-2,3.666270006E-2
4.842326417E0,1.054046502E-2,1.472307431E-2,-4.502472997E-2,4.852933781E-2
4.852290417E0,1.168206079E-2,1.926700955E-2,-3.305021703E-2,4.000006309E-2
4.862253417E0,1.376151797E-2,8.133760197E-3,-3.380041480E-2,3.738991137E-2
4.872217417E0,1.395620741E-2,8.910791203E-3,-3.260407448E-2,3.656779454E-2
4.882181417E0,1.101373318E-2,5.211943081E-3,-3.170535743E-2,3.396610603E-2
4.892144417E0,8.722839765E-3,1.504963674E-3,-4.532761574E-2,4.618382398E-2
4.902108417E0,1.332555779E-2,7.021601507E-3,-3.649539649E-2,3.948148102E-2
4.912071417E0,8.513838351E-3,1.292885162E-2,-3.679301977E-2,3.991700078E-2
4.922035417E0,1.278707491E-2,1.944630437E-2,-3.604516089E-2,4.290596301E-2
4.931999417E0,1.224550397E-2,1.174401387E-2,-2.915831029E-2,3.373546040E-2
4.941962417E0,1.169787568E-2,5.419089831E-3,-2.331869602E-2,2.664523249E-2
4.951926417E0,1.363812345E-2,4.793218486E-3,-3.858694553E-2,4.120589424E-2
4.961890417E0,7.537312224E-3,1.187444789E-2,-3.080430150E-2,3.386323344E-2
4.971853417E0,1.418489293E-2,7.570929145E-3,-3.978620946E-2,4.291238305E-2
4.981817417E0,1.069129578E-2,1.384638025E-2,-4.667130589E-2,4.984211919E-2
4.991781417E0,7.672405746E-3,1.684537148E-3,-3.544348240E-2,3.630349735E-2
5.001744417E0,1.059127185E-2,8.483341467E-3,-3.215033054E-2,3.489678890E-2
5.011708417E0,1.291669581E-2,7.594902730E-3,-3.020671606E-2,3.371897497E-2
5.021671417E0,7.982929442E-3,1.232587578E-2,-3.829224586E-2,4.101158945E-2
5.031635417E0,1.331473131E-2,1.109197623E-2,-2.841395974E-2,3.328163329E-2
5.041599417E0,1.856995749E-2,5.832195617E-3,-3.485115945E-2,3.991818060E-2
5.051562417E0,9.515480096E-3,8.365172893E-3,-3.754497170E-2,3.962505999E-2
5.061526417E0,1.447891651E-2,4.122090605E-3,-3.440209329E-2,3.755175997E-2
5.071490417E0,1.828015029E-2,5.174283357E-3,-2.452322245E-2,3.102137235E-2
5.081453417E0,1.134294969E-2,1.653995953E-2,-3.200590432E-2,3.777050013E-2
5.091417417E0,1.325010130E-2,5.813000305E-3,-3.110835671E-2,3.430868716E-2
5.101380417E0,1.023148536E-2,7.032665536E-3,-3.799403787E-2,3.997109694E-2
5.111344417E0,1.001697477E-2,1.147378114E-2,-2.976057351E-2,3.343170909E-2
5.121308417E0,1.400654371E-2,1.380946971E-2,-3.499967873E-2,4.014800408E-2
5.131271417E0,1.486900345E-2,4.051289046E-3,-4.502882302E-2,4.759301534E-2
5.141235417E0,8.834809377E-3,1.521687624E-2,-4.173508644E-2,4.529265525E-2
5.151199417E0,7.527883588E-3,1.711336582E-2,-2.781462014E-2,3.351401818E-2
5.161162417E0,9.260527790E-3,6.950548701E-3,-3.529847145E-2,3.714901868E-2
5.171126417E0,1.800393331E-2,1.184824049E-2,-3.724325538E-2,4.303001846E-2
5.181089417E0,1.303371778E-2,1.246358684E-2,-3.814080298E-2,4.218933097E-2
5.191053417E0,1.411317774E-2,2.305991105E-3,-2.886010230E-2,3.220877032E-2
5.201017417E0,1.436359846E-2,4.963144055E-3,-3.724325538E-2,4.022444320E-2
5.210980417E0,1.044526048E-2,1.316110485E-2,-3.380216897E-2,3.774791086E-2
5.220944417E0,1.569628854E-2,1.735283214E-2,-2.152652442E-2,3.179442579E-2
5.230908417E0,7.905261973E-3,1.488264391E-2,-3.679594338E-2,4.047131955E-2
5.240871417E0,1.486478250E-2,7.996798307E-3,-3.305489480E-2,3.711518035E-2
5.250835417E0,2.058258739E-2,1.397637117E-2,-3.155859232E-2,4.018614940E-2
5.260798417E0,6.507302346E-3,-4.204878956E-4,-3.799754620E-2,3.855301948E-2
5.270762417E0,1.155598477E-2,4.930536691E-3,-3.230937481E-2,3.466621809E-2
5.280726417E0,9.353895946E-3,5.698239561E-3,-2.991435528E-2,3.185645861E-2
5.290689417E0,1.735173122E-2,2.952131275E-3,-3.066396832E-2,3.535642246E-2
5.300653417E0,7.280560071E-3,6.519371364E-3,-4.323782086E-2,4.432852254E-2
5.310617417E0,1.361190691E-3,1.776586027E-2,-4.698179305E-2,5.024706468E-2
5.320580417E0,1.225592846E-2,1.771113855E-2,-3.141533554E-2,3.808957230E-2
5.330544417E0,1.225632589E-2,4.590585055E-3,-3.500903428E-2,3.737543948E-2
5.340508417E0,1.144019163E-2,9.229199504E-3,-3.740463853E-2,4.018909170E-2
5.350471417E0,1.425385353E-2,6.330798659E-3,-2.872210801E-2,3.268349492E-2
5.360435417E0,1.170363153E-2,9.725125618E-3,-3.425942123E-2,3.748681105E-2
5.370398417E0,1.458332586E-2,6.779883094E-3,-3.575747788E-2,3.920761957E-2
5.380362417E0,8.350509172E-3,1.559556568E-2,-2.887238145E-2,3.386099648E-2
5.390326417E0,9.971713666E-3,4.645512337E-3,-3.725436509E-2,3.884460807E-2
5.400289417E0,1.185824014E-2,3.293352854E-3,-3.515813828E-2,3.724994925E-2
5.410253417E0,8.547852701E-3,5.246048793E-4,-3.785195053E-2,3.880864794E-2
5.420217417E0,7.379725194E-3,2.296653832E-3,-3.635447860E-2,3.716696217E-2
5.430180417E0,6.650572834E-3,1.744424057E-2,-3.485759139E-2,3.954217148E-2
5.440144417E0,1.135321886E-2,8.906378383E-3,-3.890094101E-2,4.149099139E-2
5.450107417E0,8.609545394E-3,6.232245667E-3,-3.216553330E-2,3.387604892E-2
5.460071417E0,1.805596896E-2,1.298515848E-2,-3.710584581E-2,4.326056113E-2
5.470035417E0,9.577889987E-3,7.640620647E-3,-4.459028184E-2,4.624292698E-2
5.479998417E0,1.243971833E-2,1.079099537E-2,-3.935234606E-2,4.265910587E-2
5.489962417E0,1.581336533E-2,5.587553596E-3,-3.890386462E-2,4.236500868E-2
5.499926417E0,9.951476818E-3,9.330443130E-3,-2.947464466E-2,3.247835799E-2
5.509889417E0,9.597464455E-3,1.861096566E-2,-3.067273915E-2,3.713887846E-2
5.519853417E0,1.389565675E-2,6.510938583E-3,-2.797775745E-2,3.190981839E-2
5.529816417E0,3.246936011E-3,1.870085746E-2,-3.156853259E-2,3.683526724E-2
5.539780417E0,1.732100593E-3,1.509653780E-2,-3.007164538E-2,3.369286990E-2
5.549744417E0,5.482847323E-3,1.620047841E-2,-3.156677842E-2,3.590234833E-2
5.559707750E0,3.213204886E-3,8.249087390E-3,-3.471082628E-2,3.582197076E-2
5.569671750E0,1.539710753E-2,1.138309448E-2,-4.249347031E-2,4.660837671E-2
5.579635750E0,1.359961405E-2,1.626751126E-2,-3.396121323E-2,4.003680093E-2
5.589598750E0,7.605231288E-3,7.415804341E-3,-3.381210923E-2,3.544139427E-2
5.599562750E0,8.525633281E-3,1.177277486E-2,-3.366125107E-2,3.666557615E-2
5.609526750E0,1.492405864E-2,9.579689833E-3,-3.066689193E-2,3.542536160E-2
5.619489750E0,1.462483652E-2,1.316985740E-2,-3.680471420E-2,4.173629086E-2
5.629453750E0,6.411545053E-3,1.256755765E-2,-3.560603499E-2,3.829936218E-2
5.639416750E0,1.101304796E-2,9.078633701E-3,-3.605393171E-2,3.877621445E-2
5.649380750E0,9.405218968E-3,4.813062474E-3,-3.021665633E-2,3.201046757E-2
5.659344750E0,8.573671812E-3,6.774552078E-3,-3.515696883E-2,3.681595933E-2
5.669307750E0,1.488712525E-2,1.220094636E-2,-4.743261337E-2,5.118928015E-2
5.679271750E0,1.094269407E-2,1.785736919E-2,-3.740346909E-2,4.286779313E-2
5.689235750E0,9.622913548E-3,7.239209292E-3,-3.515813828E-2,3.716317133E-2
5.699198750E0,1.119038304E-2,7.720937636E-3,-3.680529892E-2,3.923604949E-2
5.709162750E0,1.417634594E-2,1.108466721E-2,-4.039841294E-2,4.422522357E-2
5.719126750E0,1.114049442E-2,7.854089700E-3,-4.189530015E-2,4.405693493E-2
5.729089750E0,1.005162866E-2,4.465532298E-3,-3.830394030E-2,3.985182630E-2
5.739053750E0,9.619916850E-3,1.057354747E-2,-2.827538073E-2,3.168343198E-2
5.749016750E0,1.012786630E-2,1.162125888E-2,-3.456172228E-2,3.784362536E-2
5.758980750E0,1.230826104E-2,1.303411521E-2,-3.082067370E-2,3.565522930E-2
5.768944750E0,1.196334841E-2,8.038925668E-3,-3.845421374E-2,4.106668461E-2
5.778907750E0,1.078868390E-2,1.361912000E-2,-4.339335680E-2,4.674248115E-2
5.788871750E0,1.433302848E-2,8.173210630E-3,-3.875242174E-2,4.211872823E-2
5.798835750E0,1.169627683E-2,1.115236701E-2,-3.815366685E-2,4.143525644E-2
5.808798750E0,1.791692400E-2,5.905582742E-3,-3.545926988E-2,4.016530709E-2
5.818762750E0,7.635179996E-3,-1.296437345E-5,-2.917234361E-2,3.015496267E-2
5.828725750E0,4.167123302E-3,1.136218155E-2,-3.755491197E-2,3.945675480E-2
5.838689750E0,9.115731544E-3,7.135658758E-3,-4.144681871E-2,4.303316127E-2
5.848653750E0,4.906206792E-3,1.522190119E-2,-3.650942981E-2,3.985869549E-2
5.858616750E0,1.011850619E-2,1.363434560E-2,-3.531250477E-2,3.918229881E-2
5.868580750E0,2.101873486E-2,9.175861934E-3,-3.306717396E-2,4.024203835E-2
5.878544750E0,1.087376088E-2,1.047889110E-2,-3.531308949E-2,3.840651148E-2
5.888507750E0,1.025121971E-2,1.051212430E-2,-3.456523061E-2,3.755459266E-2
5.898471750E0,9.960119734E-3,1.211863766E-2,-4.669060171E-2,4.925522969E-2
5.908434750E0,8.273695945E-3,9.715993912E-3,-4.279752553E-2,4.465963248E-2
5.918398750E0,1.178477992E-2,1.006021219E-2,-2.947639883E-2,3.330085577E-2
5.928362750E0,7.917276174E-3,1.503951374E-2,-3.740990102E-2,4.108979107E-2
5.938325750E0,1.458057127E-2,1.233955735E-2,-3.935643911E-2,4.374685170E-2
5.948289750E0,7.506052461E-3,1.094091707E-2,-3.202344596E-2,3.466331752E-2
5.958253750E0,1.280314562E-2,1.122325536E-2,-3.980901361E-2,4.329710802E-2
5.968216750E0,1.043175249E-2,1.455212091E-2,-4.130707026E-2,4.502065899E-2
5.978180750E0,1.972736358E-3,1.378768883E-2,-3.681582391E-2,3.936237978E-2
5.988143750E0,1.351741042E-2,1.559483478E-2,-3.591769159E-2,4.142462825E-2
5.998107750E0,7.286224561E-3,8.279154869E-3,-3.531835198E-2,3.700026298E-2
6.008071750E0,7.126065670E-3,1.245622301E-2,-3.097854853E-2,3.414101305E-2
6.018034750E0,1.090351316E-2,1.787336224E-2,-3.097913325E-2,3.739051182E-2
6.027998750E0,5.357246390E-3,1.377501681E-2,-3.621823847E-2,3.911792396E-2
6.037962750E0,4.596678950E-3,7.851065593E-3,-3.172582269E-2,3.300449232E-2
6.047925750E0,1.258683519E-2,8.247374338E-3,-3.187609613E-2,3.524958309E-2
6.057889750E0,1.857016762E-2,1.320230945E-2,-3.217547357E-2,3.942604723E-2
6.067853750E0,9.504224206E-3,2.077107330E-2,-3.472252071E-2,4.156225701E-2
6.077816750E0,9.621360381E-3,1.356336131E-2,-3.187960446E-2,3.595614726E-2
6.087780750E0,1.820568052E-2,2.035244920E-2,-3.457283199E-2,4.405621073E-2
6.097743750E0,2.055313204E-2,1.589216113E-2,-2.783742428E-2,3.807773907E-2
6.107707750E0,8.117936170E-3,1.516307729E-2,-3.801567256E-2,4.172542583E-2
6.117671750E0,3.935669493E-3,1.453762164E-2,-2.828765988E-2,3.204720954E-2
6.127634750E0,1.412877793E-2,1.287315689E-2,-4.385528684E-2,4.783959362E-2
6.137598750E0,1.388396689E-2,1.463717963E-3,-4.640057981E-2,4.845534866E-2
6.147562750E0,3.201154140E-3,1.024435837E-2,-3.906583250E-2,4.051337476E-2
6.157525750E0,1.071372533E-2,4.673661198E-5,-2.319941282E-2,2.555384218E-2
6.167489750E0,1.342811247E-2,5.317891887E-3,-3.592295408E-2,3.871760334E-2
6.177452750E0,8.493309142E-3,8.026838377E-3,-4.250867307E-2,4.408575417E-2
6.187416750E0,7.996967328E-3,1.389753882E-2,-3.652053952E-2,3.988537174E-2
6.197380750E0,1.461686055E-2,-3.118448015E-3,-3.621999264E-2,3.918246032E-2
6.207343750E0,1.395648607E-2,1.694773430E-2,-2.828415155E-2,3.580506152E-2
6.217307750E0,1.037809515E-2,1.538756012E-2,-2.888232172E-2,3.433176915E-2
6.227271750E0,8.561730701E-3,8.027103329E-3,-3.666496575E-2,3.849749776E-2
6.237234750E0,1.416370591E-2,5.476730587E-3,-2.962784171E-2,3.329285430E-2
6.247198750E0,7.251707716E-3,1.305534791E-2,-2.259130239E-2,2.708129092E-2
6.257162750E0,6.541896849E-3,1.222545899E-2,-3.187258780E-2,3.475802231E-2
6.267125750E0,1.488739477E-2,1.473973431E-2,-3.935702384E-2,4.458553146E-2
6.277089750E0,1.220827365E-2,5.680816686E-3,-3.651352286E-2,3.891723237E-2
6.287052750E0,1.186523852E-2,9.374297247E-3,-3.846064568E-2,4.132653627E-2
6.297016750E0,1.337013368E-2,1.759160867E-2,-4.010780632E-2,4.579149810E-2
6.306980750E0,1.523695777E-2,1.663688170E-2,-3.067741692E-2,3.807958277E-2
6.316943750E0,1.031964127E-2,8.704969212E-3,-3.217430413E-2,3.489208121E-2
6.326907750E0,1.372907049E-2,1.278051964E-2,-3.157496452E-2,3.672611392E-2
6.336871750E0,1.759225278E-2,1.502338365E-2,-3.651469231E-2,4.322629025E-2
6.346834750E0,1.299736454E-2,6.809502896E-3,-3.052714348E-2,3.387044883E-2
6.356798750E0,1.135862754E-2,9.543866501E-3,-4.325126946E-2,4.572500538E-2
6.366761750E0,1.566157526E-2,7.527723704E-3,-3.666496575E-2,4.057426866E-2
6.376725750E0,9.341854337E-3,7.508158372E-3,-3.142644525E-2,3.363427040E-2
6.386689750E0,1.052060276E-3,1.012632227E-2,-3.591827631E-2,3.733325336E-2
6.396652750E0,6.824280820E-3,2.786294189E-3,-4.160586298E-2,4.225378182E-2
6.406616750E0,1.156094120E-2,1.535013794E-2,-3.980901361E-2,4.420452081E-2
6.416580750E0,1.645757774E-2,1.011761083E-2,-4.040659904E-2,4.478739957E-2
6.426543750E0,1.425579955E-2,1.543346076E-2,-3.771278679E-2,4.317028862E-2
6.436507750E0,1.237161654E-2,1.780907485E-2,-3.501838982E-2,4.118868374E-2
6.446470750E0,1.094625265E-2,1.141630484E-2,-3.576800287E-2,3.910885440E-2
6.456434750E0,1.566683776E-2,1.165036705E-2,-3.636675775E-2,4.127616657E-2
6.466398750E0,1.095781918E-2,2.393274503E-3,-3.172582269E-2,3.365010236E-2
6.476361750E0,6.641431991E-3,7.556667421E-3,-3.741340935E-2,3.874241914E-2
6.486325750E0,9.700320633E-3,1.376709110E-2,-3.142352164E-2,3.565202280E-2
6.496289750E0,1.284424515E-2,4.243493420E-3,-4.010605216E-2,4.232584659E-2
6.506252750E0,1.515851372E-2,7.763855285E-3,-3.771103263E-2,4.137849646E-2
6.516216750E0,7.819906329E-3,1.173508773E-2,-3.172406852E-2,3.471713903E-2
6.526180750E0,1.562936076E-2,1.720462350E-2,-3.367002189E-2,4.091388959E-2
6.536143750E0,1.002715258E-2,1.129469189E-2,-2.139554679E-2,2.618937335E-2
6.546107750E0,3.898832034E-3,3.932362162E-3,-3.471901238E-2,3.515784669E-2
6.556070625E0,1.871078402E-2,3.798328447E-3,-2.573885858E-2,3.204699017E-2
6.566034625E0,1.692265523E-2,4.066756759E-3,-2.768247306E-2,3.269914502E-2
6.575998625E0,1.350074586E-2,3.217064962E-4,-5.148356438E-2,5.322528567E-2
6.585961625E0,1.017399992E-2,1.358714303E-2,-4.534691155E-2,4.841965631E-2
6.595925625E0,8.946194267E-3,1.468065002E-2,-2.768364251E-2,3.258741995E-2
6.605889625E0,1.063758362E-2,5.553763085E-3,-3.486753166E-2,3.687475062E-2
6.615852625E0,6.282801242E-3,1.188647579E-2,-2.783274651E-2,3.090992844E-2
6.625816625E0,1.678185153E-2,1.091736375E-2,-4.040659904E-2,4.509448546E-2
6.635779625E0,1.004907050E-2,2.886359235E-3,-4.055570304E-2,4.188173751E-2
6.645743625E0,5.665897150E-3,6.512578544E-3,-3.366943717E-2,3.475841005E-2
6.655707625E0,9.411294591E-3,5.835822718E-3,-3.247192740E-2,3.430824044E-2
6.665670625E0,1.568215015E-2,7.305456419E-3,-2.932963371E-2,3.405182727E-2
6.675634625E0,9.746486228E-3,1.134260251E-2,-4.354947746E-2,4.604569049E-2
6.685598625E0,7.063939003E-3,1.837301596E-2,-3.441846550E-2,3.964968747E-2
6.695561625E0,5.061546299E-3,1.303473190E-2,-3.591593742E-2,3.854189990E-2
6.705525625E0,5.920360666E-3,1.124793244E-2,-4.265368402E-2,4.450734114E-2
6.715489625E0,1.114291096E-2,1.518068289E-2,-3.442021966E-2,3.923479475E-2
6.725452625E0,6.930521987E-3,9.708401668E-3,-3.322329462E-2,3.529975217E-2
6.735416625E0,1.112922482E-2,1.102218880E-2,-3.232574701E-2,3.592077687E-2
6.745379625E0,7.805904988E-3,1.003369415E-2,-3.591886103E-2,3.810212263E-2
6.755343625E0,1.155742830E-2,1.199647654E-2,-4.220637202E-2,4.537474449E-2
6.765307625E0,8.604611806E-3,8.206950892E-3,-4.025983393E-2,4.197913310E-2
6.775270625E0,5.654266672E-3,1.570257429E-2,-2.798594356E-2,3.258457623E-2
6.785234625E0,1.078321584E-2,9.924378628E-3,-3.801625729E-2,4.074318167E-2
6.795198625E0,9.188410607E-3,8.302918319E-3,-3.098147213E-2,3.336490608E-2
6.805161625E0,1.378030215E-2,1.473482813E-2,-3.666905880E-2,4.185250005E-2
6.815125625E0,1.067621636E-2,7.001519976E-3,-3.367528439E-2,3.601427017E-2
6.825088625E0,1.372342427E-2,1.236987608E-2,-4.190699458E-2,4.579893452E-2
6.835052625E0,1.443014251E-2,6.974124857E-3,-4.235547602E-2,4.528635313E-2
6.845016625E0,1.330396878E-2,1.449488215E-2,-2.439341426E-2,3.133904678E-2
6.854979625E0,1.308484894E-2,1.353074938E-2,-3.247543573E-2,3.753596111E-2
6.864943625E0,1.675643442E-2,1.600437285E-2,-3.187551141E-2,3.940769306E-2
6.874907625E0,1.392927367E-2,1.765277146E-2,-3.427053094E-2,4.098919731E-2
6.884870625E0,1.736963832E-2,7.946731523E-3,-3.472018182E-2,3.962759017E-2
6.894834625E0,6.620048541E-3,1.264853245E-3,-2.933255732E-2,3.009690707E-2
6.904798625E0,1.333123599E-2,1.070116295E-2,-4.684496820E-2,4.986670018E-2
6.914761625E0,1.585972735E-2,1.575648745E-2,-3.486987054E-2,4.142107821E-2
6.924725625E0,1.173052873E-2,6.674857051E-3,-2.993014276E-2,3.283249102E-2
6.934688625E0,1.071314975E-2,4.927101452E-3,-3.726372063E-2,3.908494316E-2
6.944652625E0,6.259691035E-3,1.717096089E-2,-3.920908928E-2,4.325943032E-2
6.954616625E0,5.756743695E-3,1.365757914E-2,-2.798243523E-2,3.166522141E-2
6.964579625E0,1.549984036E-2,8.787748427E-3,-3.711403191E-2,4.116941751E-2
6.974543625E0,1.551697545E-2,1.631304188E-2,-3.292391717E-2,3.988578926E-2
6.984507625E0,1.667089605E-2,1.295600463E-2,-3.157554924E-2,3.798410379E-2
6.994470625E0,1.097512785E-2,1.708666963E-2,-4.295247674E-2,4.751129306E-2
7.004434625E0,4.349021958E-3,1.681842861E-2,-2.918169916E-2,3.396093489E-2
7.014397625E0,1.224033741E-2,1.145099527E-2,-3.217605829E-2,3.628015821E-2
7.024361625E0,1.372729348E-2,3.382627959E-3,-4.370325923E-2,4.593316477E-2
7.034325625E0,1.690338682E-2,1.487662768E-2,-3.262629390E-2,3.964232070E-2
7.044288625E0,1.138961321E-2,1.500955590E-2,-3.517041743E-2,3.989947768E-2
7.054252625E0,-2.919861954E-4,1.983229369E-2,-5.283485591E-2,5.643515862E-2
7.064216625E0,9.738153946E-3,1.244817395E-2,-3.831505001E-2,4.144673369E-2
7.074179625E0,1.608666784E-2,8.459641971E-3,-3.711812496E-2,4.132918612E-2
7.084143625E0,1.577635885E-2,8.205968742E-3,-4.325477779E-2,4.676758731E-2
7.094107625E0,1.394053870E-2,1.274518053E-2,-3.786539912E-2,4.231508828E-2
7.104070625E0,9.872114570E-3,1.357533897E-2,-3.681874752E-2,4.046441206E-2
7.114034625E0,1.362277907E-2,1.455921980E-2,-4.085975826E-2,4.546505071E-2
7.123997625E0,9.076157771E-3,1.827619429E-2,-4.849505246E-2,5.261336361E-2
7.133961625E0,6.756923636E-3,7.681733882E-3,-3.741750240E-2,3.879090794E-2
7.143925625E0,1.191063210E-2,4.097555140E-3,-3.831563473E-2,4.033287716E-2
7.153888625E0,1.099017986E-2,9.894210650E-3,-3.038271725E-2,3.379036794E-2
7.163852625E0,1.484850165E-2,9.793999423E-3,-3.861618161E-2,4.251599591E-2
7.173816625E0,1.577897639E-2,1.089509408E-2,-2.364730954E-2,3.044461232E-2
7.183779625E0,8.672937434E-3,1.131780666E-2,-3.397524655E-2,3.684603058E-2
7.193743625E0,8.680876857E-3,6.187806828E-3,-3.352618039E-2,3.518026929E-2
7.203706625E0,9.845866053E-3,1.429467897E-2,-2.993365109E-2,3.460205764E-2
7.213670625E0,1.732200178E-2,9.457980953E-3,-2.245038450E-2,2.989188709E-2
7.223634625E0,8.077932992E-3,9.739615750E-3,-4.086268187E-2,4.277700183E-2
7.233597625E0,1.068603785E-2,1.767129069E-2,-4.250925779E-2,4.725995046E-2
7.243561625E0,1.539806684E-2,6.299050106E-3,-3.472544432E-2,3.850499938E-2
7.253525625E0,1.451867301E-2,7.332572881E-3,-3.846883178E-2,4.176612873E-2
7.263488625E0,4.244662863E-3,9.695610884E-3,-3.637260497E-2,3.788124107E-2
7.273452625E0,1.002835857E-2,1.450846779E-2,-3.517509520E-2,3.934909066E-2
7.283416625E0,1.235880291E-2,1.098364286E-2,-3.607264280E-2,3.968143116E-2
7.293379625E0,1.010282834E-2,2.249347117E-2,-3.397700071E-2,4.198166222E-2
7.303343625E0,5.338178985E-3,1.675858601E-2,-4.236015379E-2,4.586642551E-2
7.313306625E0,1.113409446E-2,2.276644478E-2,-3.053299069E-2,3.968050640E-2
7.323270625E0,1.488656794E-2,1.249351728E-2,-4.235781491E-2,4.660345870E-2
7.333234625E0,1.439779553E-2,1.815546756E-2,-4.250750363E-2,4.841286382E-2
7.343197625E0,1.029162032E-2,7.307146629E-3,-3.127968013E-2,3.373025689E-2
7.353161625E0,1.427413606E-2,9.605984031E-3,-2.888349116E-2,3.361966613E-2
7.363125625E0,1.264955571E-2,7.783630751E-3,-4.549952388E-2,4.786233217E-2
7.373088625E0,6.793491575E-3,7.571527571E-3,-4.325477779E-2,4.443484398E-2
7.383052625E0,1.031038166E-2,1.233170015E-2,-3.382497311E-2,3.745001474E-2
7.393015625E0,8.324690061E-3,1.577110092E-2,-3.711754024E-2,4.117936234E-2
7.402979625E0,1.302408358E-2,7.488949355E-3,-4.175730586E-2,4.437773888E-2
7.412943625E0,1.309520490E-2,6.793112420E-3,-3.442255855E-2,3.745054479E-2
7.422906625E0,9.663839489E-3,7.718959632E-3,-4.056155026E-2,4.240532385E-2
7.432870625E0,9.777924148E-3,1.835088333E-2,-3.757011473E-2,4.294038007E-2
7.442834625E0,1.412928042E-2,1.904566503E-2,-3.352910399E-2,4.106792832E-2
7.452797625E0,1.275191396E-2,9.094201913E-3,-3.083470702E-2,3.458460604E-2
7.462761625E0,5.959847644E-3,8.998878594E-3,-3.637377441E-2,3.794141622E-2
7.472725625E0,1.451812483E-2,-2.675169683E-3,-3.592470825E-2,3.883963368E-2
7.482688625E0,1.356958768E-2,7.095824601E-3,-3.293034911E-2,3.631655723E-2
7.492652625E0,2.470909995E-3,1.279777806E-2,-2.903844237E-2,3.182954060E-2
7.502615625E0,1.452731593E-2,1.141233969E-2,-4.221104980E-2,4.607664408E-2
7.512579625E0,1.279146032E-2,1.077777062E-2,-3.053416014E-2,3.481546685E-2
7.522543625E0,1.762961101E-2,1.679505802E-2,-3.831680417E-2,4.539883963E-2
7.532506625E0,8.101737555E-3,1.786222969E-2,-3.187901974E-2,3.742952445E-2
7.542470625E0,1.356379529E-2,1.416579811E-2,-2.499216914E-2,3.176877236E-2
7.552434625E0,9.896097290E-3,1.997409781E-2,-3.037920892E-2,3.768014941E-2
7.562394000E0,1.330239277E-2,1.308146395E-2,-3.995870233E-2,4.409961728E-2
7.572358000E0,7.738858438E-3,1.597625596E-2,-4.070714593E-2,4.440948563E-2
7.582321000E0,5.302150086E-3,1.411397716E-2,-3.741399407E-2,4.033762635E-2
7.592285000E0,2.177466564E-2,2.186109480E-2,-4.355240107E-2,5.337466785E-2
7.602249000E0,1.039682452E-2,5.386779397E-3,-3.262629390E-2,3.466390638E-2
7.612212000E0,1.170865648E-2,1.312233507E-2,-3.981193721E-2,4.352331167E-2
7.622176000E0,1.295017112E-2,8.791457755E-3,-4.175789058E-2,4.459504555E-2
7.632140000E0,1.521580730E-2,6.105753947E-3,-3.457283199E-2,3.826332101E-2
7.642103000E0,8.915606020E-3,1.457763853E-2,-4.115972042E-2,4.456588562E-2
7.652067000E0,1.620450751E-2,9.145387891E-3,-3.607030392E-2,4.058683294E-2
7.662031000E0,1.413790050E-2,7.165401899E-3,-3.547154903E-2,3.885169244E-2
7.671994000E0,1.030741693E-2,1.051522607E-2,-3.487279415E-2,3.785399048E-2
7.681958000E0,6.871300656E-3,2.285137558E-3,-2.948400021E-2,3.036021895E-2
7.691921000E0,8.708961764E-3,1.529036386E-2,-3.053123653E-2,3.523914934E-2
7.701885000E0,9.281637152E-3,9.945492558E-3,-3.472135127E-2,3.729120331E-2
7.711849000E0,1.639925177E-2,8.516359963E-3,-2.963076532E-2,3.492056842E-2
7.721812000E0,1.151122159E-2,8.477526228E-3,-3.142644525E-2,3.452532598E-2
7.731776000E0,8.566755652E-3,5.956065226E-3,-3.696434319E-2,3.840867979E-2
7.741740000E0,9.989511129E-3,8.295609299E-3,-1.900052726E-2,2.301363732E-2
7.751703000E0,1.742657558E-2,1.449218695E-2,-2.902733266E-2,3.682791143E-2
7.761667000E0,7.615007102E-3,7.268463643E-3,-4.040309072E-2,4.175198961E-2
7.771630000E0,1.644118727E-2,1.010482005E-2,-3.785838246E-2,4.249326005E-2
7.781594000E0,1.473289581E-2,6.857303884E-3,-3.531308949E-2,3.887280701E-2
7.791558000E0,1.480892331E-2,1.138790930E-2,-3.411557972E-2,3.889551989E-2
7.801521000E0,6.234493190E-3,1.506231789E-2,-3.665911853E-2,4.012023551E-2
7.811485000E0,1.048836085E-2,5.771754594E-3,-4.040075183E-2,4.213715240E-2
7.821449000E0,2.045143617E-2,1.079144762E-2,-4.189763904E-2,4.785528957E-2
7.831412000E0,1.744924725E-2,9.712261744E-3,-3.246666491E-2,3.811677568E-2
7.841376000E0,8.117059087E-3,3.260964761E-3,-3.411265612E-2,3.521638605E-2
7.851340000E0,9.307067972E-3,9.639354274E-3,-2.947289050E-2,3.237576160E-2
7.861303000E0,8.753391467E-3,1.763345738E-2,-3.186907947E-2,3.745929668E-2
7.871267000E0,9.079519920E-3,7.102996577E-3,-3.231989980E-2,3.431422686E-2
7.881230000E0,1.310809619E-2,8.767776531E-3,-3.396647573E-2,3.744886599E-2
7.891194000E0,1.259973560E-2,7.518811268E-3,-3.980433583E-2,4.242252952E-2
7.901158000E0,1.409626650E-2,1.202636129E-2,-4.309748769E-2,4.691195519E-2
7.911121000E0,9.165624739E-3,1.243873161E-2,-2.543480337E-2,2.976003937E-2
7.921085000E0,1.584871814E-2,9.478318300E-3,-3.262044668E-2,3.748484929E-2
7.931049000E0,7.576237321E-3,4.950070046E-3,-3.366943717E-2,3.486450293E-2
7.941012000E0,1.772808177E-2,1.388257817E-2,-3.546570182E-2,4.200984248E-2
7.950976000E0,1.345882863E-2,1.897273472E-2,-3.501605093E-2,4.203841759E-2
7.960939000E0,9.807630745E-3,1.386197587E-2,-3.097387075E-2,3.532314631E-2
7.970903000E0,1.743438710E-2,1.139766684E-2,-3.112297475E-2,3.745002297E-2
7.980867000E0,1.494292505E-2,1.108669090E-2,-3.905706167E-2,4.326268358E-2
7.990830000E0,5.308906361E-3,1.797201117E-2,-3.621122181E-2,4.077291083E-2
8.000794000E0,5.063140579E-3,1.023668390E-2,-2.977577627E-2,3.189078146E-2
8.010758000E0,9.489692962E-3,4.069584436E-3,-3.172056019E-2,3.335880287E-2
8.020721000E0,3.563585579E-3,2.681190488E-3,-4.324600697E-2,4.347533833E-2
8.030685000E0,1.024435380E-2,-2.456661975E-3,-5.162799060E-2,5.269185313E-2
8.040648000E0,8.812174257E-3,1.311112943E-2,-3.276721179E-2,3.637645253E-2
8.050612000E0,1.018498629E-2,1.572677172E-2,-3.351507068E-2,3.839694333E-2
8.060576000E0,1.296897357E-2,7.345724548E-3,-4.174853504E-2,4.432938216E-2
8.070539000E0,7.081951168E-3,1.598681293E-2,-2.767779529E-2,3.273824327E-2
8.080503000E0,8.640489955E-3,1.406130197E-2,-3.366592884E-2,3.749364006E-2
8.090467000E0,1.807590888E-2,2.694442654E-3,-3.860682607E-2,4.271399679E-2
8.100430000E0,1.612702733E-2,1.430385636E-2,-2.049449086E-2,2.974399894E-2
8.110394000E0,1.773214742E-2,1.484448626E-2,-3.561188221E-2,4.246167659E-2
8.120358000E0,1.308570318E-2,3.532572496E-3,-2.737841785E-2,3.054983568E-2
8.130321000E0,1.244057257E-2,1.212300480E-2,-3.905413806E-2,4.274296189E-2
8.140285000E0,1.511323891E-2,1.320783233E-2,-3.695849597E-2,4.205695246E-2
8.150248000E0,1.354558669E-2,8.175713969E-3,-3.261635363E-2,3.625123090E-2
8.160212000E0,-6.082429038E-4,4.682294978E-3,-3.111771226E-2,3.147389175E-2
8.170176000E0,4.919545753E-3,-2.520300695E-3,-4.249288559E-2,4.285089464E-2
8.180139000E0,1.242058697E-2,9.321192652E-3,-2.857183456E-2,3.251930724E-2
8.190103000E0,4.993161284E-3,1.035138069E-2,-4.204323471E-2,4.358573535E-2
8.200067000E0,4.373758421E-3,6.029274194E-3,-3.515696883E-2,3.593736729E-2
8.210030000E0,1.044130447E-2,3.773258510E-3,-2.931852400E-2,3.135018610E-2
8.219994000E0,1.412365705E-2,9.862156031E-3,-3.261050642E-2,3.688068517E-2
8.229958000E0,1.011538158E-2,7.265841532E-3,-3.919622540E-2,4.112733256E-2
8.239921000E0,1.453713285E-2,7.517070808E-3,-3.754964948E-2,4.096108838E-2
8.249885000E0,1.589357725E-2,1.136550715E-2,-3.919564068E-2,4.379587651E-2
8.259848000E0,1.206672535E-2,4.255863936E-3,-3.874715924E-2,4.080515394E-2
8.269812000E0,9.913437939E-3,6.828277940E-3,-3.201058209E-2,3.419910813E-2
8.279776000E0,1.364271442E-2,5.338590117E-3,-3.126213849E-2,3.452456378E-2
8.289739000E0,9.707922013E-3,1.074273300E-2,-2.841980696E-2,3.189569704E-2
8.299703000E0,1.495270086E-2,9.231447028E-3,-2.737374008E-2,3.252882603E-2
8.309667000E0,1.458058041E-2,8.936336227E-3,-3.186498642E-2,3.616391557E-2
8.319630000E0,7.360406541E-3,1.251745432E-2,-2.243576646E-2,2.672500446E-2
8.329594000E0,3.788945493E-3,9.410860618E-3,-3.620712876E-2,3.760155022E-2
8.339557000E0,4.976501288E-3,6.147429063E-3,-4.788167953E-2,4.853052322E-2
8.349521000E0,1.199873320E-2,9.823546135E-3,-3.126564682E-2,3.490003335E-2
8.359485000E0,1.237193174E-2,5.386957554E-3,-3.815132797E-2,4.046736750E-2
8.369448000E0,1.395963351E-2,1.065423905E-2,-3.919856429E-2,4.295243439E-2
8.379412000E0,2.384496370E-2,1.297902804E-2,-2.108622909E-2,3.437537665E-2
8.389376000E0,1.939950837E-2,2.267768587E-2,-2.931852400E-2,4.183532253E-2
8.399339000E0,1.357077083E-2,2.056067860E-2,-2.872035384E-2,3.783868457E-2
8.409303000E0,1.652165500E-2,7.551797787E-3,5.166131973E-2,5.476209173E-2
8.419266000E0,1.714847195E-2,2.114003261E-2,1.369833058E-1,1.396617240E-1
8.429230000E0,4.516901001E-3,3.392472295E-3,-9.560197592E-3,1.110444240E-2
8.439194000E0,-3.188023029E-2,1.957225705E-2,4.941774309E-2,6.198012311E-2
8.449157000E0,1.059116678E-2,3.802419214E-2,2.253025746E-1,2.287340424E-1
8.459121000E0,7.933104769E-2,-4.209529320E-3,-1.260150987E-1,1.489662390E-1
8.469085000E0,3.755040322E-2,-4.926294262E-2,-1.434789777E-2,6.358248554E-2
8.479048000E0,-5.428555012E-3,-2.641385567E-2,1.266577077E-1,1.294964706E-1
8.489012000E0,8.265943816E-3,3.913371045E-2,-5.641276717E-2,6.915326037E-2
8.498976000E0,6.934446017E-3,6.800849017E-2,6.019357681E-2,9.108516875E-2
8.508939000E0,-1.663358350E-2,1.201395423E-2,3.311862946E-3,2.078411972E-2
8.518903000E0,-1.310685365E-3,-6.183882798E-2,-1.656861180E-1,1.768548790E-1
8.528866000E0,-3.475397690E-3,-3.928465541E-2,1.591384059E-1,1.639524162E-1
8.538830000E0,8.913733084E-3,6.038237792E-2,-5.218639970E-3,6.125945155E-2
8.548794000E0,4.142633518E-3,8.261056823E-2,-9.847412825E-2,1.286033488E-1
8.558756625E0,-1.353323445E-2,9.666996072E-3,1.447700429E-1,1.457222171E-1
8.568720625E0,6.216302868E-3,-4.573566003E-2,-5.940537214E-2,7.522892568E-2
8.578684625E0,3.822792649E-2,-2.172692404E-2,-1.092523009E-1,1.177688364E-1
8.588647625E0,4.159834382E-2,1.423840865E-2,1.534496498E-1,1.596244014E-1
8.598611625E0,2.249697036E-2,7.172073207E-2,5.480419815E-2,9.302406795E-2
8.608575625E0,1.545515028E-3,5.904700178E-2,-1.308104002E-1,1.435280385E-1
8.618538625E0,1.783105216E-2,-2.212118169E-2,5.106958151E-3,2.886821993E-2
8.628502625E0,3.483632214E-2,-6.602178901E-2,3.684213638E-2,8.324535410E-2
8.638465625E0,2.285114718E-2,-3.372061858E-3,2.247260392E-2,3.222675372E-2
8.648429625E0,-1.908202740E-2,6.388128782E-2,-1.240428329E-2,6.781451870E-2
8.658393625E0,-1.994884057E-2,3.991825604E-2,-4.683327377E-2,6.468986735E-2
8.668356625E0,4.273985736E-3,-1.306659923E-2,4.806879044E-2,4.999611568E-2
8.678320625E0,3.809317558E-2,-2.478715571E-2,1.214408219E-2,4.704223471E-2
8.688284625E0,2.047482960E-2,-1.390543713E-2,-6.479533553E-2,6.936148308E-2
8.698247625E0,-1.716002477E-2,8.252805853E-3,2.890921891E-2,3.461673284E-2
8.708211625E0,-2.460305978E-2,3.871151864E-2,5.645135880E-2,7.273684167E-2
8.718174625E0,7.103987862E-3,4.734669585E-2,-6.479533553E-2,8.056433304E-2
8.728138625E0,3.557311700E-2,-9.959804532E-3,-1.420054793E-2,3.957650718E-2
8.738102625E0,2.068180276E-2,-3.067885588E-2,1.071964198E-1,1.134019470E-1
8.748065625E0,1.624138608E-2,9.183326270E-3,-6.883810043E-2,7.132180715E-2
8.758029625E0,3.971168487E-3,4.871927490E-2,-5.057607651E-2,7.033688535E-2
8.767993625E0,9.623831743E-3,4.187497651E-2,1.164771205E-1,1.241493109E-1
8.777956625E0,2.288884801E-2,5.522274915E-3,-5.940654159E-2,6.390252003E-2
8.787920625E0,1.734816807E-2,-2.518739762E-2,-5.102397323E-2,5.948789607E-2
8.797883625E0,9.708228079E-3,-1.379526280E-2,1.143814784E-1,1.156186904E-1
8.807847625E0,9.799750708E-4,3.207205094E-2,-9.982015729E-2,1.048505632E-1
8.817811625E0,3.730340861E-4,4.481254913E-2,-1.644412458E-2,4.773586646E-2
8.827774625E0,1.175998407E-2,-3.801649483E-3,1.121384865E-1,1.128175072E-1
8.837738625E0,1.425105326E-2,-2.118485517E-2,-9.967046857E-2,1.028887405E-1
8.847702625E0,5.695571769E-3,-1.013909478E-2,1.813455462E-2,2.154304649E-2
8.857665625E0,-2.725624759E-4,9.740022314E-3,2.307486713E-2,2.504779068E-2
8.867629625E0,1.314074923E-3,2.778521047E-2,-1.344801128E-2,3.089650014E-2
8.877593625E0,-3.959295899E-4,2.273076306E-2,-2.347774029E-2,3.268101342E-2
8.887556625E0,3.147161955E-2,8.857334862E-3,1.259665668E-2,3.503699442E-2
8.897520625E0,4.384675356E-2,-2.220804482E-3,-1.120443463E-2,4.531014374E-2
8.907483625E0,3.044746603E-2,3.516122634E-3,5.585494280E-2,6.371174100E-2
8.917447625E0,-2.201933507E-3,3.290700136E-2,5.420778215E-2,6.345236714E-2
8.927411625E0,-8.410867970E-3,3.617064305E-2,-8.934370100E-2,9.675409567E-2
8.937374625E0,1.599538276E-2,-1.649925743E-2,-1.973844588E-2,3.029329977E-2
8.947338625E0,2.507323074E-2,-3.302469942E-2,7.711015642E-2,8.755154992E-2
8.957302625E0,2.772165398E-2,1.339455494E-3,-5.865868270E-2,6.489318375E-2
8.967265625E0,-4.779651118E-3,4.347675271E-2,-1.943965316E-2,4.786411188E-2
8.977229625E0,-1.794561190E-2,4.156174391E-2,4.043466568E-2,6.069914111E-2
8.987193625E0,6.446372531E-3,9.610465374E-3,1.229435563E-2,1.688395522E-2
8.997156625E0,2.941440920E-2,-1.023165438E-2,-3.934825301E-2,5.018146306E-2
9.007120625E0,8.051725589E-3,-1.243807836E-2,5.061408341E-2,5.273823582E-2
9.017083625E0,4.414798566E-3,3.046474729E-2,-3.800339341E-2,4.890653519E-2
9.027047625E0,4.430106394E-3,3.917992629E-2,-5.521525741E-3,3.981431543E-2
9.037011625E0,5.710290307E-3,1.564316567E-2,2.202119887E-2,2.760886175E-2
9.046974625E0,1.776299605E-2,-1.988872389E-2,-2.273572862E-2,3.504281271E-2
9.056938625E0,9.173180438E-3,-1.460855568E-2,2.336956680E-2,2.904640753E-2
9.066902625E0,2.218761611E-2,2.709173069E-2,-5.312253892E-2,6.362590921E-2
9.076865625E0,1.611790933E-2,3.518203877E-2,5.794649184E-2,6.968040449E-2
9.086829625E0,8.061994761E-3,3.664603539E-2,8.846837282E-3,3.855118933E-2
9.096792625E0,1.655951573E-2,5.615076623E-3,-4.713674426E-2,5.027543442E-2
9.106756625E0,2.322364222E-2,-2.820109368E-2,3.923306286E-2,5.360851112E-2
9.116720625E0,2.169413852E-2,-2.151979556E-2,-3.710935414E-2,4.807121188E-2
9.126683625E0,1.071391263E-2,5.350549500E-3,-2.183993518E-2,2.490781148E-2
9.136647625E0,-6.009425637E-3,1.815291854E-2,-5.225656629E-3,1.982294466E-2
9.146611625E0,3.063077624E-3,1.332080236E-2,1.468118906E-2,2.005900128E-2
9.156574625E0,9.964075740E-3,4.292043583E-3,8.543951511E-3,1.380954564E-2
9.166538625E0,1.991980093E-2,6.066975030E-3,-5.227410793E-3,2.146933810E-2
9.176502625E0,8.231627969E-3,1.181623612E-2,2.920041025E-2,3.255836442E-2
9.186465625E0,1.912921169E-3,2.214450660E-2,-2.124527335E-2,3.074735890E-2
9.196429625E0,-6.990638673E-3,2.215563001E-2,1.208619475E-3,2.326374285E-2
9.206392625E0,1.334564846E-2,-2.843519244E-3,1.018877327E-2,1.702947549E-2
9.216356625E0,1.876290190E-2,-1.126054049E-2,-1.690430045E-2,2.765143095E-2
9.226320625E0,1.535958485E-2,7.657742025E-3,1.108632088E-2,2.043194485E-2
9.236283625E0,8.195786364E-3,2.656733595E-2,3.601300120E-3,2.803504264E-2
9.246247625E0,1.725556280E-2,4.308171391E-2,2.620429695E-2,5.329590697E-2
9.256211625E0,2.392136123E-2,2.463281206E-2,7.193829417E-3,3.508216263E-2
9.266174625E0,1.863990937E-2,3.163060443E-3,-3.134692311E-3,1.916448457E-2
9.276138625E0,2.656766485E-2,-9.460310703E-3,-1.750597894E-2,3.319333658E-2
9.286101625E0,1.331861422E-2,7.909546886E-3,8.838066459E-3,1.783417605E-2
9.296065625E0,7.761804191E-3,2.869391346E-2,-2.124936640E-2,3.653931919E-2
9.306029625E0,9.417648870E-3,1.837655169E-2,-1.939521432E-3,2.074009416E-2
9.315992625E0,6.911139381E-3,-1.664673060E-2,6.078005254E-2,6.339631120E-2
9.325956625E0,2.681039739E-4,-5.426773438E-3,-2.693695307E-2,2.747946852E-2
9.335920625E0,7.494376302E-3,1.807767218E-3,-4.519839227E-2,4.585115443E-2
9.345883625E0,1.463825314E-2,2.279082036E-2,4.446456671E-2,5.206532090E-2
9.355847625E0,-2.176626027E-4,3.038059307E-2,3.368697882E-2,4.536342529E-2
9.365811625E0,-4.633383933E-3,2.601398835E-2,-1.316442132E-2,2.952114200E-2
9.375774625E0,-1.109833508E-3,-3.739193911E-3,-5.657298088E-2,5.670727879E-2
9.385738625E0,1.041227396E-2,-2.280848534E-2,-5.687294304E-2,6.215443752E-2
9.395701625E0,1.043849506E-2,8.277464658E-5,-1.795387566E-2,2.076802066E-2
9.405665625E0,9.673852846E-3,2.632930859E-2,-6.630450189E-2,7.199376981E-2
9.415629625E0,2.275208255E-2,3.068806982E-2,-3.262453973E-2,5.023719222E-2
9.425592625E0,2.268148656E-2,2.426902388E-2,3.024530768E-2,4.492453661E-2
9.435556625E0,3.011675573E-2,1.275761956E-2,-7.483675897E-2,8.167200454E-2
9.445520625E0,2.038282275E-2,-1.191361053E-3,-6.241317987E-2,6.566798174E-2
9.455483625E0,1.579368579E-2,2.777651274E-3,2.994476080E-2,3.396828752E-2
9.465447625E0,1.512638601E-2,1.539451282E-2,-7.094543695E-2,7.415560399E-2
9.475410625E0,-9.939718433E-4,1.005735253E-2,-6.884862542E-2,6.958643217E-2
9.485374625E0,-3.637470631E-3,6.907037194E-3,8.091961741E-3,1.124358485E-2
9.495338625E0,-4.950362407E-3,8.690022267E-3,-8.381574333E-2,8.441031575E-2
9.505301625E0,-7.493033269E-3,1.941639220E-2,-6.794873893E-2,7.106456892E-2
9.515265625E0,9.777576970E-3,5.285805291E-3,-2.982664704E-3,1.150812920E-2
9.525229625E0,1.601834221E-2,1.884916660E-2,-1.106468618E-2,2.709807464E-2
9.535192625E0,2.101781666E-3,3.942759699E-2,2.770410776E-2,4.823349953E-2
9.545156625E0,9.761611330E-3,3.529632443E-2,-7.079223990E-2,7.970358088E-2
9.555120625E0,1.210630369E-2,-2.265515582E-2,-5.447616935E-2,6.022849576E-2
9.565087500E0,2.564867442E-3,-3.835981318E-2,3.189188361E-2,4.995143694E-2
9.575051500E0,2.514654477E-3,4.563578228E-3,-1.005814648E-1,1.007163382E-1
9.585014500E0,1.489227811E-2,4.347407122E-2,-1.306688976E-1,1.385140268E-1
9.594978500E0,2.402155418E-2,4.717302897E-2,8.248725593E-2,9.801263755E-2
9.604942500E0,4.079210871E-2,1.448300499E-2,-1.959986687E-2,4.751745309E-2
9.614905500E0,2.877042063E-2,1.006726539E-2,-1.243819714E-1,1.280623353E-1
9.624869500E0,1.500828139E-2,-3.225653060E-4,2.545468390E-2,2.955153957E-2
9.634833500E0,9.939197665E-3,5.363956983E-3,-3.157554924E-2,3.353468346E-2
9.644796500E0,2.244006051E-3,2.824612638E-2,-8.396601677E-2,8.861811999E-2
9.654760500E0,7.252086871E-3,1.822111169E-2,3.093177080E-4,1.961370318E-2
9.664724500E0,5.017180550E-3,-8.113569031E-3,-1.091733634E-2,1.449794247E-2
9.674687500E0,7.218963308E-3,-9.976766026E-4,-4.998492301E-2,5.051337761E-2
9.684651500E0,1.385145089E-2,1.549942466E-2,-3.771161735E-2,4.306113027E-2
9.694614500E0,1.173016327E-2,2.795141757E-2,-3.397056878E-2,4.552887016E-2
9.704578500E0,2.598319910E-3,4.095204377E-2,-8.373797536E-3,4.188008644E-2
9.714542500E0,6.870359620E-3,3.825454960E-2,-2.304270744E-2,4.518383309E-2
9.724505500E0,1.671632160E-2,1.205261895E-3,-1.019292480E-1,1.032979170E-1
9.734469500E0,5.331847547E-3,-3.333316745E-2,-3.007983148E-2,4.521421140E-2
9.744433500E0,-1.867025094E-3,-7.717908961E-3,5.993980765E-3,9.948854549E-3
9.754396500E0,1.004965979E-2,3.509536293E-2,-8.935714960E-2,9.652657844E-2
9.764360500E0,3.029243716E-2,3.571182848E-2,-4.085683465E-2,6.214698207E-2
9.774323500E0,2.465872253E-2,4.939220720E-3,2.979741096E-2,3.899146315E-2
9.784287500E0,1.810450999E-2,-1.079512040E-2,-4.774193108E-2,5.218812020E-2
9.794251500E0,1.682052995E-2,-4.854477206E-3,-4.414881706E-2,4.749330716E-2
9.804214500E0,1.076953426E-2,2.750107233E-2,-1.480924308E-2,3.303945412E-2
9.814178500E0,1.042041438E-2,2.391543636E-2,-5.432648063E-2,6.026524396E-2
9.824142500E0,1.883238327E-2,8.188769706E-3,-3.831095695E-2,4.346773552E-2
9.834105500E0,3.453781265E-3,-7.105499916E-3,-5.977608562E-3,9.906994408E-3
9.844069500E0,7.729562279E-4,-8.579272348E-3,-2.319181144E-2,2.473987658E-2
9.854033500E0,-1.151673990E-2,7.138317414E-3,-4.908912957E-2,5.092478292E-2
9.863996500E0,-6.646685349E-3,2.440245460E-2,-4.295130730E-2,4.984448831E-2
9.873960500E0,2.972281328E-3,1.592869252E-2,-2.214574456E-2,2.744069430E-2
9.883923500E0,1.175243294E-2,1.313742363E-2,-2.454251826E-2,3.021666398E-2
9.893887500E0,1.430770730E-2,1.059041760E-2,-9.399808466E-2,9.566873760E-2
9.903851500E0,6.405181638E-3,3.647196195E-3,-3.726664424E-2,3.798856624E-2
9.913814500E0,7.816306637E-3,6.181151052E-3,9.586510062E-3,1.382759751E-2
9.923778500E0,1.381102744E-2,2.301268108E-2,-4.729637325E-2,5.438083203E-2
9.933742500E0,2.270413538E-2,1.662380312E-2,-6.600629389E-2,7.175415965E-2
9.943705500E0,3.204629579E-2,-1.114821457E-2,1.567053795E-4,3.393040404E-2
9.953669500E0,2.419343948E-2,-8.988719056E-3,-1.436251581E-2,2.953644265E-2
9.963633500E0,1.179065455E-2,1.200248821E-2,-7.528524041E-2,7.714237928E-2
9.973596500E0,1.524303796E-2,2.986881552E-2,1.805035472E-3,3.358205622E-2
9.983560500E0,1.784202939E-2,8.311689142E-3,-7.326561213E-3,2.100239720E-2
9.993523500E0,6.765191965E-3,-1.477509169E-3,-8.486356437E-2,8.514561300E-2
1.000348750E1,-7.992179920E-3,1.317046040E-2,-6.585485101E-2,6.763281281E-2
1.001345150E1,-1.400926632E-2,1.756361513E-2,-3.381971061E-2,4.060188352E-2
1.002341450E1,-2.263434338E-3,2.405762876E-2,-1.391228020E-2,2.788268597E-2
1.003337850E1,1.037232103E-2,2.191811428E-2,-5.537488639E-2,6.045135913E-2
1.004334250E1,7.024497706E-3,1.893982586E-2,-4.459788322E-2,4.895949101E-2
1.005330550E1,8.126291293E-3,6.820393335E-3,1.797083259E-2,2.086876133E-2
1.006326950E1,1.007286593E-2,1.604883910E-2,1.153480232E-2,2.218286566E-2
1.007323250E1,2.056844900E-3,1.688241907E-2,-1.360571069E-1,1.371159473E-1
1.008319650E1,7.513991883E-3,-7.801208943E-3,-1.271418571E-2,1.670237867E-2
1.009316050E1,1.671039673E-2,-2.148406816E-2,2.440803230E-2,3.655891935E-2
1.010312350E1,2.555880088E-2,9.690170232E-3,-1.278253967E-1,1.307152773E-1
1.011308750E1,2.268909251E-2,1.990042289E-2,-7.259084344E-2,7.861458072E-2
1.012305150E1,2.043862711E-2,1.708867047E-2,5.254775763E-2,5.891542216E-2
1.013301450E1,1.615736890E-2,1.115726405E-3,-5.507609367E-2,5.740802653E-2
1.014297850E1,8.400767818E-3,1.217425930E-2,-8.186862051E-2,8.319408942E-2
1.015294150E1,8.847248415E-4,2.947179414E-4,2.710476816E-2,2.712080481E-2
1.016290550E1,6.344215279E-3,-6.594293383E-3,-4.489609122E-2,4.581913116E-2
1.017286950E1,2.287682011E-3,-2.252553036E-3,-6.794640005E-2,6.802220787E-2
1.018283250E1,-1.967524113E-3,-9.651112659E-3,-3.037394643E-2,3.193104678E-2
1.019279650E1,4.780290658E-3,2.911543376E-3,-4.638947010E-2,4.672591572E-2
1.020276050E1,2.128907265E-3,1.958354034E-2,-4.504344106E-2,4.916257602E-2
1.021272350E1,1.533994643E-2,3.432434816E-2,-3.651118398E-2,5.240745547E-2
1.022268750E1,2.645267570E-2,2.921136464E-2,-4.669060171E-2,6.109877383E-2
1.023265150E1,1.503528365E-2,1.334109860E-2,2.680597544E-2,3.350529787E-2
1.024261450E1,9.289658801E-3,-4.965090081E-3,-4.699173331E-2,4.815779148E-2
1.025257850E1,1.966967714E-2,3.394829454E-3,-9.339465201E-2,9.550383285E-2
1.026254150E1,1.194246745E-2,-1.032366123E-2,2.156570077E-2,2.672601653E-2
1.027250550E1,3.093885141E-3,3.073808178E-3,-1.301180899E-2,1.372325017E-2
1.028246950E1,6.681901119E-3,9.261752050E-3,-1.279721618E-1,1.284807458E-1
1.029243250E1,2.151292508E-2,1.164526444E-2,7.347026467E-3,2.554206192E-2
1.030239650E1,1.423153361E-2,1.552700251E-2,-6.426090002E-3,2.202087620E-2
1.031236050E1,1.660498696E-2,2.049810883E-2,-6.256052971E-2,6.789490360E-2
1.032232350E1,1.461149299E-2,1.628109690E-2,-2.274333000E-2,3.155675685E-2
1.033228750E1,-1.030941778E-3,9.867847930E-3,-2.663406730E-2,2.842201267E-2
1.034225150E1,-8.174731820E-3,5.419811597E-3,-5.746760488E-2,5.829859525E-2
1.035221450E1,-1.076612643E-2,-9.167675832E-3,-3.725962758E-2,3.985267376E-2
1.036217850E1,-1.847263332E-4,-7.834729934E-3,-4.609009266E-2,4.675161771E-2
1.037214150E1,-2.351425798E-3,-6.797132380E-3,-5.312253892E-2,5.360722296E-2
1.038210550E1,-2.942017419E-4,1.261927810E-2,-4.488965929E-2,4.663061489E-2
1.039206950E1,1.364556037E-2,1.183586540E-2,-4.967911363E-2,5.286117061E-2
1.040203250E1,1.674679108E-2,3.138055374E-2,9.156739712E-4,3.558135218E-2
1.041199650E1,2.531704136E-2,2.514784212E-2,1.379007339E-2,3.825614553E-2
1.042196050E1,2.440702731E-2,1.150998820E-2,-6.015615463E-2,6.593137152E-2
1.043192350E1,1.063600761E-2,-5.134129431E-4,-7.377724349E-2,7.454173266E-2
1.044188750E1,1.726041416E-2,-1.598363807E-2,4.809919596E-3,2.401112054E-2
1.045185150E1,2.097146377E-2,-1.063790339E-2,-3.530782700E-2,4.242180959E-2
1.046181450E1,8.337489981E-3,5.529670729E-3,-6.898837388E-2,6.971001885E-2
1.047177850E1,-4.484448954E-4,1.698703855E-2,-1.076063097E-2,2.011347211E-2
1.048174150E1,1.181126141E-2,6.979524395E-3,-1.734693468E-2,2.211641471E-2
1.049170550E1,3.917086311E-3,1.784923791E-2,-7.647397935E-2,7.862702066E-2
1.050166950E1,2.943026978E-3,1.236327055E-2,-1.105942369E-2,1.684703887E-2
1.051163250E1,9.955085646E-3,8.255391419E-3,-3.426000595E-2,3.661971089E-2
1.052159650E1,4.564711126E-4,4.330301732E-3,-6.389720321E-2,6.404539372E-2
1.053156050E1,8.471245039E-3,5.443392321E-3,-1.958934188E-2,2.202577644E-2
1.054152350E1,8.898813548E-3,5.383202545E-3,-5.701152205E-2,5.795240633E-2
1.055148750E1,6.442644931E-3,7.560331067E-3,-2.527751327E-2,2.715914131E-2
1.056145200E1,-2.654635906E-3,4.505891791E-3,-3.994583845E-2,4.028672439E-2
1.057141600E1,-7.154438370E-3,-4.155981615E-3,-4.114393294E-2,4.196762311E-2
1.058138000E1,1.617272241E-2,1.991113517E-2,6.019416153E-2,6.543200545E-2
1.059134300E1,2.108286694E-2,4.624480176E-2,-5.782896280E-4,5.082719142E-2
1.060130700E1,2.210204576E-2,2.733755129E-2,-1.215250218E-1,1.265076008E-1
1.061127100E1,2.140776656E-2,-2.763348436E-2,1.394327044E-2,3.763398355E-2
1.062123400E1,1.285793586E-2,-2.370461682E-2,2.232525408E-2,3.500931795E-2
1.063119800E1,6.801819289E-3,1.787248059E-2,-1.852918321E-1,1.862760139E-1
1.064116200E1,4.552696925E-3,2.851062609E-2,-2.228198469E-2,3.647012053E-2
1.065112500E1,9.027776630E-3,5.346616334E-3,9.447580218E-2,9.505663709E-2
1.066108900E1,1.472739577E-2,7.841097917E-3,-1.261659569E-1,1.272644006E-1
1.067105200E1,1.755011628E-2,8.857261771E-3,-8.095937848E-2,8.331193571E-2
1.068101600E1,1.475948236E-2,-2.597931619E-3,4.627603412E-2,4.864219261E-2
1.069098000E1,1.252784226E-2,-3.666724982E-3,-3.560428083E-2,3.792171564E-2
1.070094300E1,3.740144083E-3,2.464037689E-2,-5.745941877E-2,6.263163463E-2
1.071090700E1,-1.727823903E-2,2.124274717E-2,-8.811753988E-3,2.876523700E-2
1.072087100E1,-2.066899370E-3,8.648657785E-3,-5.910599470E-2,5.977114659E-2
1.073083400E1,9.639938995E-3,2.279537022E-3,-4.892657697E-2,4.991928132E-2
1.074079800E1,1.350064536E-2,-6.500696819E-3,-4.668124616E-2,4.902718865E-2
1.075076200E1,1.156351763E-2,-2.310874444E-3,-3.380860090E-2,3.580609691E-2
1.076072500E1,1.279344290E-2,2.730953034E-2,1.663649797E-2,3.444206285E-2
1.077068900E1,1.848248223E-2,4.063867869E-2,-5.835696638E-2,7.347543725E-2
1.078065200E1,1.788488765E-2,5.447919345E-3,-8.021268904E-2,8.236276170E-2
1.079061600E1,1.301680197E-2,-2.298729137E-2,2.486820817E-2,3.628057987E-2
1.080058000E1,5.252494435E-3,-6.088970611E-3,-4.817871809E-2,4.884519565E-2
1.081054300E1,1.230425022E-2,2.152786746E-2,-8.230716169E-2,8.596111049E-2
1.082050700E1,2.755713251E-2,1.790210953E-2,3.609661639E-2,4.881441173E-2
1.083047100E1,1.596288046E-2,-1.636699615E-3,-3.754906476E-2,4.083411077E-2
1.084043400E1,6.476266421E-3,1.031097095E-3,-7.257739484E-2,7.287306382E-2
1.085039800E1,-1.056180736E-3,6.896242686E-3,-1.494665265E-2,1.649472965E-2
1.086036100E1,4.542541956E-3,6.921422258E-3,-3.515346050E-2,3.611518460E-2
1.087032500E1,-1.126881796E-3,1.250774703E-2,-7.841350079E-2,7.941278678E-2
1.088028900E1,1.270019808E-3,1.208817276E-2,-2.781695902E-2,3.035654921E-2
1.089025200E1,1.652973604E-2,7.719727079E-3,-1.494372904E-2,2.358265035E-2
1.090021600E1,1.923570867E-2,1.796991896E-2,-4.024112284E-2,4.808615646E-2
1.091018000E1,9.612288061E-3,7.980672782E-3,-2.736613870E-2,3.008309770E-2
1.092014300E1,2.034511277E-3,-4.211548436E-3,-5.041937113E-2,5.063585055E-2
1.093010700E1,1.283759851E-2,-2.145517012E-3,-1.135003030E-2,1.726934760E-2
1.094007100E1,2.669660053E-2,1.487100430E-2,9.250295162E-4,3.057304251E-2
1.095003400E1,1.655140271E-2,1.696097733E-2,-8.708959937E-2,9.025642361E-2
1.095999800E1,2.085632388E-2,1.154980408E-3,-4.023586035E-2,4.533480653E-2
1.096996100E1,-4.968077643E-4,-4.894896084E-3,2.727492213E-2,2.771512589E-2
1.097992500E1,3.173279366E-3,1.024699418E-2,-9.008161962E-2,9.071807309E-2
1.098988900E1,1.126751147E-2,6.399128856E-3,-5.265768528E-2,5.422856705E-2
1.099985200E1,2.021629130E-3,9.636969706E-3,2.982138455E-2,3.140498600E-2
1.100981600E1,4.920331473E-3,-4.318260122E-5,-8.274394870E-2,8.289012349E-2
1.101978000E1,3.722483665E-4,-1.685003098E-4,-6.971986055E-2,6.972105792E-2
1.102974300E1,2.931699825E-2,-2.050920026E-3,1.335737944E-2,3.228176334E-2
1.103970700E1,2.341113685E-2,1.044095272E-2,-5.040943086E-2,5.655267935E-2
1.104967100E1,2.199512394E-3,1.193572945E-2,-6.837207735E-2,6.944091339E-2
1.105963400E1,-9.164619748E-3,4.059064016E-3,-3.034821868E-2,3.196061065E-2
1.106959800E1,1.583947223E-2,1.587601276E-3,-2.076638639E-2,2.616585871E-2
1.107956100E1,1.910510106E-2,4.621767160E-3,-3.333848476E-2,3.870168193E-2
1.108952500E1,1.745425849E-2,6.277525043E-3,-5.863470912E-2,6.149867945E-2
1.109948900E1,1.649133171E-2,-2.694049794E-3,-1.452448368E-3,1.677294047E-2
1.110945200E1,7.516846969E-3,2.092638083E-2,3.896292150E-2,4.486118205E-2
1.111941600E1,1.340566465E-2,3.473202243E-2,-9.695326746E-2,1.038554828E-1
1.112938000E1,2.271573845E-2,1.717016604E-3,-5.818388879E-2,6.248454076E-2
1.113934300E1,2.092129649E-2,-4.519862982E-2,4.270572424E-2,6.560789333E-2
1.114930700E1,6.218349393E-3,-7.713290574E-3,-6.626766443E-2,6.700422427E-2
1.115927000E1,-3.604717087E-3,3.204559229E-2,-1.397642416E-1,1.434362478E-1
1.116923400E1,1.526993972E-2,3.401418535E-2,4.061183631E-2,5.513127164E-2
1.117919800E1,2.138833827E-2,8.462300627E-3,2.669253945E-2,3.523582280E-2
1.118916100E1,8.039935227E-3,-1.574180089E-4,-1.140142733E-1,1.142975059E-1
1.119912500E1,1.749295061E-3,-1.116452739E-5,-6.838318706E-3,7.058523966E-3
1.120908900E1,2.205418996E-3,9.136155685E-3,2.130199134E-2,2.328321389E-2
1.121905200E1,4.963865820E-3,1.747603023E-2,-8.377832115E-2,8.572548449E-2
1.122901600E1,7.345729116E-3,7.790080961E-3,-4.186547935E-2,4.321300104E-2
1.123898000E1,5.122325365E-3,-1.468720073E-2,6.472867727E-4,1.556827102E-2
1.124894300E1,1.145415642E-2,-5.563525194E-3,-7.284929037E-2,7.395383438E-2
1.125890700E1,2.261511609E-2,8.826856250E-3,-7.344804525E-2,7.735613886E-2
1.126887000E1,2.507165930E-2,1.685567720E-2,-1.866314292E-2,3.551077101E-2
1.127883400E1,2.020956244E-2,6.285665464E-3,-4.306357384E-2,4.798340751E-2
1.128879800E1,1.130889423E-2,1.411988377E-2,-1.267676353E-2,2.208987415E-2
1.129876100E1,2.320838464E-2,1.212266676E-2,-6.446789145E-2,6.958230519E-2
1.130872500E1,1.256760790E-2,-1.654632295E-2,-3.932135582E-2,4.447352690E-2
1.131868900E1,3.459240189E-3,-1.206371952E-2,3.178195596E-2,3.417005115E-2
1.132865200E1,-3.326618029E-3,8.450651877E-3,-9.695034385E-2,9.737478666E-2
1.133861600E1,7.639432931E-3,1.757022522E-2,-6.416792929E-2,6.696713298E-2
1.134858000E1,1.539556350E-2,1.507754805E-2,7.623833656E-2,7.922524719E-2
1.135854300E1,1.263630811E-2,4.372639228E-3,-4.052003503E-2,4.266930390E-2
1.136850700E1,2.910104413E-3,1.522834226E-2,-8.707381189E-2,8.844331423E-2
1.137847000E1,1.212840434E-3,2.683159355E-3,6.329610944E-3,6.980995684E-3
1.138843400E1,6.868203459E-3,7.639021799E-3,-1.941977262E-2,2.196939784E-2
1.139839800E1,1.223624893E-2,1.762949224E-2,-7.884677947E-2,8.171498893E-2
1.140836100E1,5.544229383E-3,4.257001402E-3,-5.983806610E-2,6.024495576E-2
1.141832500E1,3.160922555E-3,-7.832939224E-3,2.133064270E-3,8.711850060E-3
1.142828900E1,1.745798152E-2,-1.072277938E-2,-3.319581270E-2,3.900924374E-2
1.143825200E1,2.422365314E-2,1.535215706E-2,-7.211429536E-2,7.760763940E-2
1.144821600E1,2.814039228E-2,6.740377843E-3,6.474037170E-3,2.965177108E-2
1.145818000E1,2.596509101E-2,-1.896416489E-3,-3.253390789E-3,2.623674710E-2
1.146814300E1,1.710139273E-2,1.221180025E-2,-8.333744109E-2,8.594599924E-2
1.147810700E1,6.560649052E-3,3.234871561E-3,-5.968603849E-2,6.013260098E-2
1.148807000E1,4.533008253E-3,-8.082871148E-3,1.635583162E-2,1.879878182E-2
1.149803400E1,-2.173738964E-3,1.031883728E-2,-1.523024261E-2,1.852468175E-2
1.150799800E1,-7.412282308E-3,1.251086706E-2,-8.902502775E-2,9.020487398E-2
1.151796100E1,3.770083655E-5,1.016936783E-2,-1.313226163E-2,1.660944788E-2
1.152792500E1,6.033303291E-3,1.185623473E-3,2.638614535E-2,2.709308248E-2
1.153788900E1,2.765696459E-3,1.120983417E-2,-8.273634732E-2,8.353809087E-2
1.154785200E1,1.227700585E-3,-2.773297839E-3,-6.402759612E-2,6.409938763E-2
1.155781600E1,1.153655648E-2,-3.121755347E-3,2.458754182E-2,2.733833763E-2
1.156777375E1,1.866854246E-2,1.173605617E-2,-9.336775482E-2,9.593637022E-2
1.157773775E1,2.433926356E-2,7.212266419E-3,-9.546339691E-2,9.878095306E-2
1.158770175E1,1.860410431E-2,-4.694217816E-4,4.674030304E-2,5.030893541E-2
1.159766475E1,1.492685434E-2,2.370291291E-2,-4.082759857E-2,4.951294645E-2
1.160762875E1,1.834456103E-2,2.208810381E-2,-6.403051972E-2,7.017346155E-2
1.161759275E1,1.769978216E-2,-4.775731657E-3,1.305800200E-2,2.250780570E-2
1.162755575E1,1.907975703E-2,-1.388723767E-2,-1.312115192E-3,2.363501946E-2
1.163751975E1,8.668268798E-3,1.391058085E-2,-3.798292816E-2,4.136841760E-2
1.164748375E1,4.256233955E-3,1.586981837E-2,-8.109269500E-2,8.274050909E-2
1.165744675E1,1.137867252E-2,-1.327007320E-2,-4.082584441E-2,4.441079376E-2
1.166741075E1,1.725252955E-2,-2.219936536E-2,1.201427400E-2,3.057457077E-2
1.167737375E1,1.522258641E-3,1.263455395E-3,-3.947747648E-2,3.952701279E-2
1.168733775E1,-2.952505862E-3,2.488083450E-2,-7.405498624E-2,7.817873242E-2
1.169730175E1,7.652538917E-3,2.150184735E-2,-6.992685199E-3,2.387024167E-2
1.170726475E1,-1.372213606E-3,8.597188583E-3,-3.049264491E-2,3.171113393E-2
1.171722875E1,-1.258900962E-3,-1.099796397E-2,-8.123653650E-2,8.198728503E-2
1.172719275E1,1.485729075E-2,-1.082336063E-2,5.134440064E-3,1.908524819E-2
1.173715575E1,1.139446001E-2,8.030237071E-4,-3.049030602E-2,3.255975011E-2
1.174711975E1,2.533297045E-3,1.666752476E-2,-5.129762292E-2,5.399694522E-2
1.175708375E1,6.678182655E-3,8.571808012E-3,-1.656983972E-2,1.981498434E-2
1.176704675E1,9.522071918E-3,-3.938629646E-3,-1.791820765E-2,2.066990136E-2
1.177701075E1,1.723960629E-2,-6.042028433E-3,-3.363727748E-2,3.827762492E-2
1.178697375E1,3.430776126E-2,2.109629726E-3,-2.256031215E-2,4.111496935E-2
1.179693775E1,2.080663168E-2,2.056148716E-2,-3.857758999E-2,4.841405917E-2
1.180690175E1,1.125466587E-2,2.479226746E-2,-1.822109342E-2,3.276175018E-2
1.181686475E1,8.618709077E-3,9.118184634E-3,-5.803887784E-2,5.937958217E-2
1.182682875E1,1.288566902E-2,-1.110961838E-2,-8.887533903E-2,9.048917048E-2
1.183679275E1,2.015710195E-2,-1.899420496E-2,-3.103702068E-3,2.786972457E-2
1.184675575E1,-1.760870721E-3,4.405109547E-3,1.685752273E-3,5.034621787E-3
1.185671975E1,5.917427922E-4,1.181657416E-2,-1.039933151E-1,1.046641828E-1
1.186668375E1,1.266720242E-2,1.674902947E-2,-1.537700772E-2,2.602768472E-2
1.187664675E1,2.248848276E-2,-4.553893777E-3,3.626560092E-2,4.291460842E-2
1.188661075E1,1.653478840E-2,-4.328136435E-3,-7.899354458E-2,8.082148277E-2
1.189657375E1,9.569900315E-3,-1.867911313E-3,-4.067440152E-2,4.182677401E-2
1.190653775E1,8.513952554E-3,-4.831344159E-3,9.396475554E-4,9.834236727E-3
1.191650175E1,7.702253954E-3,6.350907600E-3,-5.923404872E-2,6.006938714E-2
1.192646475E1,4.754846133E-3,1.765518344E-2,-6.327681363E-2,6.586553884E-2
1.193642875E1,1.373342393E-2,7.933027111E-4,-1.058638394E-2,1.735821957E-2
1.194639275E1,1.420004087E-2,-3.391878437E-3,-2.091665983E-2,2.550789404E-2
1.195635575E1,1.259864382E-2,8.589322250E-3,-5.040650725E-2,5.266230394E-2
1.196631975E1,8.827399858E-3,1.520943018E-2,-6.747102141E-2,6.972509222E-2
1.197628275E1,6.121641928E-3,5.302145518E-3,9.617500305E-3,1.257312845E-2
1.198624675E1,1.349329522E-2,8.605530001E-3,2.279829383E-3,1.616545034E-2
1.199621075E1,1.026406074E-2,7.980261650E-3,-8.888118625E-2,8.982706044E-2
1.200617375E1,1.383943212E-2,2.888250444E-3,-6.642729342E-2,6.791507331E-2
1.201613775E1,6.450228039E-3,-1.073097462E-2,2.458169460E-2,2.758657223E-2
1.202610175E1,9.376704656E-3,9.189931797E-3,-5.220803440E-2,5.383359817E-2
1.203606475E1,1.275286870E-2,1.501859168E-2,-8.693523288E-2,8.913993758E-2
1.204602875E1,2.179262299E-2,3.712963667E-3,2.578622103E-3,2.225654528E-2
1.205599275E1,1.246514915E-2,-4.444322437E-3,8.566170931E-3,1.576423895E-2
1.206595575E1,1.362163247E-2,9.443764910E-3,-8.154760838E-2,8.321505873E-2
1.207591975E1,2.402223484E-3,1.155661974E-2,-4.652044773E-2,4.799456422E-2
1.208588275E1,1.161540253E-3,6.664300086E-3,2.338593900E-2,2.434469582E-2
1.209584675E1,1.083082496E-2,1.087655202E-3,-6.358320773E-2,6.450824806E-2
1.210581075E1,7.588301771E-3,2.026791126E-4,-6.103791475E-2,6.150813312E-2
1.211577375E1,2.301336173E-3,-4.240272883E-3,-1.463382661E-2,1.540859967E-2
1.212573775E1,5.739206616E-3,2.470704429E-3,-3.379222870E-2,3.436506356E-2
1.213570175E1,3.074836009E-3,1.387549756E-2,-7.001748383E-2,7.144530839E-2
1.214566475E1,1.248894914E-2,1.034001516E-2,-2.615810394E-2,3.077557743E-2
1.215562875E1,2.018063243E-2,6.345069520E-3,4.254784942E-2,4.751670572E-2
1.216559275E1,1.606997587E-2,2.402657457E-2,-3.379398286E-2,4.446969404E-2
1.217555575E1,1.430469233E-2,1.410439778E-2,-1.077384567E-1,1.095953161E-1
1.218551975E1,1.473311051E-2,-1.793498185E-2,1.216220856E-2,2.620395840E-2
1.219548275E1,9.706898751E-3,-1.603404290E-2,2.203990996E-2,2.893219739E-2
1.220544675E1,-6.056678449E-3,7.626304105E-3,-1.063924277E-1,1.068372245E-1
1.221541075E1,-4.297429416E-3,1.874586275E-2,-9.067628145E-2,9.269338319E-2
1.222537375E1,6.960534649E-3,9.399271253E-3,2.473313749E-2,2.735915629E-2
1.223533775E1,1.713423307E-2,6.545491973E-3,-4.472242892E-2,4.833757396E-2
1.224530175E1,1.320252872E-2,2.503339201E-6,-9.142589450E-2,9.237424401E-2
1.225526475E1,8.785057794E-3,-1.293924870E-3,9.462549090E-3,1.297656801E-2
1.226522875E1,-2.516582231E-3,1.808244132E-2,-1.643184543E-2,2.456243909E-2
1.227519275E1,2.210960146E-3,1.676457027E-2,-8.977873385E-2,9.135732162E-2
1.228515575E1,7.582550487E-3,-2.496898128E-3,-7.133603096E-4,8.014889586E-3
1.229511975E1,1.779549378E-2,-1.308961350E-2,7.069868445E-3,2.319484038E-2
1.230508275E1,1.221437668E-2,-1.097815652E-2,-7.017009616E-2,7.206631192E-2
1.231504675E1,4.736605561E-3,5.939930566E-3,-6.118818820E-2,6.165802934E-2
1.232501075E1,9.388782810E-3,8.091532337E-3,-4.816468477E-2,4.973388179E-2
1.233497375E1,1.398639366E-2,1.411307724E-2,-2.511203706E-2,3.202206368E-2
1.234493775E1,1.598326806E-2,8.711803146E-3,-4.921192110E-2,5.247069229E-2
1.235490175E1,6.869162768E-3,7.729470916E-4,-5.430133760E-2,5.473954795E-2
1.236486475E1,6.353378962E-3,3.073260002E-4,1.335854888E-2,1.479563117E-2
1.237482875E1,9.464846863E-3,1.537888980E-2,-2.509624958E-3,1.823161526E-2
1.238479175E1,1.618540813E-2,4.705875702E-3,-1.080407578E-1,1.093476934E-1
1.239475575E1,4.625426237E-3,-1.552455856E-2,3.776716590E-3,1.663340237E-2
1.240471975E1,1.173862346E-2,-1.548269615E-2,1.934141994E-2,2.741531845E-2
1.241468275E1,1.824568827E-3,1.644538539E-3,-8.993193090E-2,8.996546979E-2
1.242464675E1,-4.609524552E-4,1.205655668E-2,-6.014387548E-2,6.134214533E-2
1.243461075E1,1.652463343E-2,1.170633587E-2,1.290422022E-2,2.401292796E-2
1.244457375E1,2.153740573E-2,1.199940015E-3,-3.649305761E-2,4.239154344E-2
1.245453775E1,1.219604018E-2,1.370574558E-2,-4.787056983E-2,5.126580062E-2
1.246450175E1,1.062523595E-2,4.775165208E-3,-7.753992677E-3,1.399365013E-2
1.247446475E1,7.442925372E-3,8.123463616E-3,-2.212527931E-2,2.471671062E-2
1.248442875E1,4.455537214E-3,2.723304145E-3,-5.909722388E-2,5.932748155E-2
1.249439275E1,-1.920782933E-3,-3.672517380E-3,-6.358730078E-2,6.372222227E-2
1.250435575E1,-3.411347838E-4,-1.194762488E-2,-7.752823234E-3,1.424669721E-2
1.251431975E1,8.623025967E-3,2.974679600E-3,1.065947413E-2,1.402960029E-2
1.252428275E1,7.731352989E-3,4.131313674E-3,-1.083424741E-1,1.086965191E-1
1.253424675E1,6.339779617E-3,3.591442080E-3,-6.792710423E-2,6.831678236E-2
1.254421075E1,1.433789355E-2,-2.342266683E-3,4.119772732E-2,4.368425507E-2
1.255417375E1,2.105590579E-2,-4.140678355E-3,-4.966215670E-2,5.410014967E-2
1.256414313E1,8.450112836E-3,1.316677848E-2,-6.956958711E-2,7.130705374E-2
1.257410713E1,-5.033991295E-3,1.633900261E-2,3.506399810E-2,3.901010174E-2
1.258407013E1,2.964209430E-3,6.136862962E-3,-3.648545623E-2,3.711652113E-2
1.259403412E1,1.318883801E-2,1.554263011E-4,-9.965234220E-2,1.005214351E-1
1.260399713E1,1.095955050E-2,-1.206459660E-2,-1.028700650E-2,1.927404319E-2
1.261396113E1,1.314317948E-2,-2.595012579E-3,9.921555519E-3,1.667076846E-2
1.262392512E1,6.743995808E-3,1.136254700E-2,-8.527813196E-2,8.629570525E-2
1.263388813E1,9.856500677E-3,2.529199426E-2,-3.154105067E-2,4.161338074E-2
1.264385213E1,1.005911127E-2,5.486387629E-3,2.888524532E-3,1.181650298E-2
1.265381613E1,8.417697335E-3,7.348287273E-3,-6.926202357E-2,7.015755742E-2
1.266377913E1,1.058695039E-2,-9.101410434E-3,-4.246715784E-2,4.470322903E-2
1.267374313E1,8.827121202E-3,-1.014067079E-2,-6.244241595E-3,1.482369137E-2
1.268370713E1,-6.376566826E-3,1.895539407E-2,4.929027379E-2,5.319303205E-2
1.269367012E1,-5.625158502E-3,2.347917468E-2,-7.944144130E-2,8.302925176E-2
1.270363413E1,6.331314859E-3,-9.409531290E-3,-1.420107418E-1,1.424628921E-1
1.271359713E1,1.286980388E-2,-4.957052900E-2,5.408089757E-2,7.448229776E-2
1.272356112E1,1.050476503E-2,-2.459507011E-2,-1.901514530E-3,2.681199954E-2
1.273352513E1,-2.832208537E-3,1.956293805E-2,-1.698510897E-1,1.709974346E-1
1.274348813E1,-2.154406607E-3,3.519243585E-2,1.501623452E-2,3.832279097E-2
1.275345213E1,1.530563971E-2,1.522340868E-2,5.812600136E-2,6.200521601E-2
1.276341612E1,3.018159131E-2,-1.469481125E-2,-1.273371542E-1,1.316875725E-1
1.277337913E1,1.362288414E-2,-3.515522380E-2,-5.084621787E-2,6.329937286E-2
1.278334313E1,6.255031535E-3,-1.373838035E-2,4.675141275E-2,4.912802773E-2
1.279330712E1,2.713921191E-3,1.118121936E-2,-6.775928915E-2,6.872922450E-2
1.280327013E1,-5.788725223E-3,2.239127280E-2,-9.604928792E-2,9.879445403E-2
1.281323413E1,-8.473072294E-4,-7.074043723E-3,8.732816577E-3,1.127040858E-2
1.282319712E1,1.675826624E-2,-2.488272571E-2,-1.491624713E-2,3.350349168E-2
1.283316113E1,2.340308779E-2,-8.338842150E-3,-6.191909015E-2,6.671742300E-2
1.284312513E1,3.647557078E-3,1.412045022E-2,-3.482601643E-2,3.775636644E-2
1.285308813E1,3.580560777E-3,2.343365776E-2,-1.027823567E-2,2.583793452E-2
1.286305212E1,4.998981091E-3,2.438316336E-2,-2.090613484E-2,3.250530636E-2
1.287301613E1,6.393025825E-3,1.104531728E-2,-8.228026450E-2,8.326410835E-2
1.288297913E1,9.934931025E-3,-2.095914351E-2,-3.467866659E-2,4.172048019E-2
1.289294312E1,6.055842480E-4,-2.466765781E-2,4.076386392E-2,4.765031664E-2
1.290290713E1,-1.135224585E-2,5.153014110E-3,-5.832948446E-2,5.964692614E-2
1.291287013E1,9.701261669E-4,3.309080950E-2,-1.132658297E-1,1.180046228E-1
1.292283412E1,2.064621697E-2,7.412085878E-3,4.884647012E-2,5.354608235E-2
1.293279713E1,3.006558803E-2,-1.618458129E-2,-2.647619247E-3,3.424748375E-2
1.294276113E1,1.843098105E-2,-1.063570155E-2,-8.617392540E-2,8.876240549E-2
1.295272513E1,8.181154621E-3,9.055217430E-3,-3.587851524E-2,3.789717812E-2
1.296268812E1,2.826187732E-3,1.995469236E-2,1.142428994E-2,2.316660279E-2
1.297265213E1,7.220868221E-3,2.015474936E-2,-4.425874472E-2,4.916494019E-2
1.298261613E1,1.852260418E-2,6.668621544E-3,-6.162205160E-2,6.469029774E-2
1.299257912E1,2.279795579E-2,-2.677402589E-2,-2.509800375E-2,4.320306751E-2
1.300254313E1,8.623647233E-3,-3.615967495E-2,-2.195337117E-2,4.317221201E-2
1.301250713E1,5.484076152E-3,-2.130816747E-3,-6.985317707E-2,7.010051225E-2
1.302247012E1,4.630898866E-3,1.524439470E-2,-5.398558795E-2,5.628748085E-2
1.303243413E1,6.264323127E-3,1.194485659E-2,2.639842451E-2,2.964453001E-2
1.304239713E1,1.383223730E-2,2.785467356E-3,-2.314854205E-2,2.710986197E-2
1.305236113E1,1.771441848E-2,-1.118998105E-2,-9.739297807E-2,9.962132541E-2
1.306232512E1,1.113526847E-2,-1.066329310E-2,-2.374671221E-2,2.831265378E-2
1.307228813E1,1.263194554E-2,1.707295608E-3,3.822441816E-2,4.029375945E-2
1.308225213E1,1.534794523E-2,2.658060182E-2,-8.107866168E-2,8.669392825E-2
1.309221612E1,8.574274806E-3,1.087074134E-2,-8.332457721E-2,8.446701352E-2
1.310217913E1,1.044508689E-2,-1.910673645E-2,5.034803510E-2,5.485518987E-2
1.311214313E1,7.738968073E-3,-2.204262343E-2,-5.533161700E-2,6.006127466E-2
1.312210713E1,5.265682647E-3,-1.019398095E-2,-7.090041339E-2,7.182279082E-2
1.313207013E1,-3.647520533E-4,4.225216303E-3,1.367254436E-2,1.431516560E-2
1.314203413E1,1.325914621E-2,3.199221818E-3,-5.009368122E-2,5.191740437E-2
1.315199713E1,9.816410705E-3,9.246421382E-3,-7.973263264E-2,8.086501675E-2
1.316196112E1,3.642317425E-3,-3.313936880E-3,8.004838228E-4,4.988930568E-3
1.317192513E1,-7.414822192E-3,-2.026387302E-2,-1.117461383E-2,2.429971466E-2
1.318188813E1,-5.441793473E-3,-6.338381767E-4,-7.554076374E-2,7.573916987E-2
1.319185212E1,-7.615039079E-4,8.662723079E-3,-2.928811848E-2,3.055186645E-2
1.320181613E1,7.227414362E-3,8.044215571E-3,1.037939250E-2,1.498921984E-2
1.321177913E1,1.185654536E-2,1.562995462E-2,2.175573528E-2,2.929479760E-2
1.322174313E1,1.227087084E-2,1.057303584E-2,-8.676800251E-2,8.826692256E-2
1.323170712E1,4.064171193E-3,-1.722691144E-2,-8.048107624E-2,8.240441492E-2
1.324167013E1,9.022180662E-3,-3.511531656E-2,7.534429729E-2,8.361368509E-2
1.325163413E1,5.228973096E-3,5.406874632E-3,-4.066329181E-2,4.135311057E-2
1.326159712E1,1.074861676E-2,2.758179132E-2,-1.508318514E-1,1.537092559E-1
1.327156113E1,1.917458243E-2,1.262055717E-2,2.505356491E-2,3.397976146E-2
1.328152513E1,1.378027474E-2,-1.728583127E-2,1.442508101E-2,2.639656980E-2
1.329148812E1,1.158311037E-2,-2.682911762E-2,-1.346648848E-1,1.377991335E-1
1.330145213E1,-2.827722626E-3,-2.269359212E-4,-3.661643386E-2,3.672615885E-2
1.331141613E1,1.172563168E-3,2.076653257E-2,3.208951950E-2,3.824082950E-2
1.332137913E1,1.639007895E-2,2.223678754E-2,-5.248343825E-2,5.930953295E-2
1.333134312E1,1.489638944E-2,5.439883992E-3,-6.116538405E-2,6.318780707E-2
1.334130613E1,5.485067437E-3,-8.361746790E-3,9.188314676E-3,1.358049707E-2
1.335127013E1,6.919987863E-3,-6.350076199E-3,-3.167670608E-2,3.303972469E-2
1.336123412E1,1.242695952E-2,-3.363519441E-3,-6.864923537E-2,6.984597413E-2
1.337119713E1,1.227653990E-2,1.689979627E-2,-6.011697829E-2,6.364249857E-2
1.338116113E1,1.195601198E-2,5.556133948E-4,-1.775507033E-2,2.141255359E-2
1.339112512E1,1.766452985E-4,1.404684839E-2,1.106293201E-3,1.409145265E-2
1.340108813E1,-3.664801796E-3,1.747084997E-2,-8.167039990E-2,8.359853821E-2
1.341105213E1,3.377246694E-3,-1.553166658E-5,-5.098304272E-2,5.109478135E-2
1.342101613E1,9.614174701E-3,-1.446961122E-2,2.985003591E-2,3.453732253E-2
1.343097913E1,1.484405686E-2,8.399561830E-3,-1.062170112E-1,1.075776563E-1
1.344094313E1,1.765714774E-2,3.197458517E-3,-8.720478952E-2,8.903187026E-2
1.345090713E1,2.185709311E-2,-3.378036981E-3,7.655584037E-2,7.968651296E-2
1.346087012E1,1.180723232E-2,-3.715202054E-3,-2.927700877E-3,1.271946908E-2
1.347083413E1,4.186332319E-3,-9.878596757E-4,-1.298625666E-1,1.299337810E-1
1.348079713E1,4.336528103E-3,-1.481534611E-2,-3.555808783E-2,3.876438528E-2
1.349076112E1,1.485134304E-2,-1.235493827E-2,3.284790337E-2,3.810763238E-2
1.350072513E1,2.115583379E-2,7.055634130E-3,-6.699388862E-2,7.060830255E-2
1.351068813E1,1.443116577E-2,1.470845170E-2,-6.564669013E-2,6.880468750E-2
1.352065213E1,-1.361003397E-3,3.007122511E-3,1.578338921E-2,1.612484081E-2
1.353061612E1,8.529854240E-4,-4.854056938E-3,-2.568214059E-2,2.615075139E-2
1.354057913E1,6.024637534E-3,-6.992054796E-3,-8.600669503E-2,8.650050103E-2
1.355054313E1,1.676101626E-2,-1.148881031E-2,-1.310887277E-2,2.418195554E-2
1.356050712E1,1.475159319E-2,-6.731935926E-3,3.314318776E-2,3.689714566E-2
1.357046463E1,-2.947453503E-4,1.026593825E-2,-5.083218455E-2,5.185930340E-2
1.358042862E1,3.783760658E-3,7.122995881E-3,-1.138499665E-1,1.141353091E-1
1.359039163E1,3.988084299E-3,-1.316183575E-2,7.996067405E-3,1.590835726E-2
1.360035563E1,1.261225230E-2,-6.311173942E-3,1.518288016E-2,2.072244374E-2
1.361031963E1,1.924356587E-2,-5.651151203E-3,-1.005253315E-1,1.025065491E-1
1.362028263E1,1.298235364E-2,4.935808321E-3,-3.690704048E-2,3.943391113E-2
1.363024663E1,4.034428052E-3,1.524079501E-2,3.958389580E-2,4.260801860E-2
1.364021063E1,1.530753549E-2,1.497831898E-2,-8.690190375E-2,8.950201985E-2
1.365017362E1,1.728309039E-2,-2.953995075E-3,-4.334131658E-2,4.675362043E-2
1.366013763E1,1.120970626E-2,-2.447336580E-2,5.231036067E-2,5.883006868E-2
1.367010063E1,5.457005370E-3,-1.247382861E-2,-9.183929265E-2,9.284304487E-2
1.368006462E1,-7.537152339E-3,8.639379898E-3,-1.015690595E-1,1.022140959E-1
1.369002863E1,7.502260907E-3,1.450343370E-2,2.012903988E-2,2.591933168E-2
1.369999163E1,1.683180868E-2,-2.074500751E-2,-5.007380068E-2,5.675430058E-2
1.370995563E1,2.247623559E-2,-6.016894542E-3,-8.734570742E-2,9.039168540E-2
1.371991962E1,1.722586534E-2,9.487838298E-4,1.863624573E-2,2.539567448E-2
1.372988263E1,2.192922399E-2,-6.446189806E-4,2.327542663E-2,3.198518224E-2
1.373984663E1,9.611776429E-3,2.988396803E-2,-1.723174453E-3,3.143894275E-2
1.374981062E1,1.304795209E-2,2.052895289E-2,-1.297064459E-1,1.319676062E-1
1.375977363E1,1.256822003E-2,-3.395128210E-2,-6.339375794E-2,7.300286471E-2
1.376973763E1,2.058683119E-2,-4.855471233E-2,8.389935851E-2,9.909833534E-2
1.377970062E1,8.605096028E-3,-1.499102754E-2,-8.030975282E-2,8.214885868E-2
1.378966463E1,9.571343847E-4,2.080649463E-2,-1.150375360E-1,1.169079168E-1
1.379962863E1,6.212712312E-4,2.216922479E-2,6.488830626E-2,6.857370338E-2
1.380959163E1,1.679105633E-3,1.428461993E-2,-3.270873964E-2,3.573137852E-2
1.381955562E1,1.548591211E-2,-3.581191180E-3,-1.282095587E-1,1.291910576E-1
1.382951963E1,1.669433059E-2,-1.969318477E-2,1.938351989E-2,3.228378918E-2
1.383948263E1,1.540233804E-2,-1.653609945E-2,4.264959097E-3,2.299705369E-2
1.384944662E1,-1.533441441E-3,1.311532298E-2,-1.270102948E-1,1.276948633E-1
1.385941063E1,-6.782190003E-3,1.085108008E-2,-7.431869566E-2,7.541228392E-2
1.386937363E1,8.474684847E-3,-1.474439381E-3,2.447702944E-2,2.594454133E-2
1.387933762E1,2.515347464E-2,-1.335849406E-2,-2.042783260E-2,3.504915113E-2
1.388930063E1,2.317899325E-2,-1.074480694E-2,-5.470479548E-2,6.037657868E-2
1.389926463E1,6.286825771E-3,-4.783168584E-3,-4.243032038E-2,4.315941343E-2
1.390922863E1,6.077408656E-3,1.573363306E-2,-2.762224674E-3,1.709128405E-2
1.391919163E1,5.066822497E-3,2.090755097E-2,-1.832868218E-2,2.826197035E-2
1.392915563E1,2.479170558E-2,-1.434331136E-3,-9.736432672E-2,1.004813320E-1
1.393911963E1,2.274430758E-2,-2.219618593E-2,-2.401743829E-2,3.983480312E-2
1.394908262E1,2.311555096E-3,-2.041372620E-2,4.319104314E-2,4.782812678E-2
1.395904663E1,5.267217541E-3,4.646215830E-3,-1.157777935E-1,1.159906392E-1
1.396901063E1,2.200340141E-2,1.157411571E-2,-8.224810481E-2,8.592357402E-2
1.397897362E1,2.622020320E-2,-4.086271841E-3,7.103372991E-2,7.582867174E-2
1.398893763E1,1.597016207E-2,-1.437693285E-2,-3.659246027E-2,4.243524978E-2
1.399890063E1,1.578635850E-2,-6.604932575E-3,-1.075449139E-1,1.088978547E-1
1.400886463E1,1.022563357E-2,-7.261693664E-4,-2.465186119E-3,1.054362587E-2
1.401882862E1,2.709028716E-3,7.360392837E-3,-1.266506910E-3,7.944700061E-3
1.402879163E1,1.027294577E-2,7.778989524E-4,-8.464078546E-2,8.526547428E-2
1.403875563E1,4.984175758E-3,4.022701643E-3,-4.916338921E-2,4.957885613E-2
1.404871962E1,1.367450866E-2,-1.315680167E-2,-2.159376740E-3,1.909860008E-2
1.405868263E1,1.516176623E-2,-1.748947883E-3,-3.419159353E-2,3.744333107E-2
1.406864663E1,1.141873052E-2,-9.212525804E-3,-6.368027151E-2,6.534856553E-2
1.407861063E1,3.283577040E-3,-1.401382076E-2,-1.098925710E-2,1.810891554E-2
1.408857363E1,6.334055741E-3,-6.184965447E-3,2.523482859E-2,2.674267439E-2
1.409853763E1,1.308456114E-2,1.568706547E-2,-5.694544852E-2,6.049854436E-2
1.410850063E1,1.779804736E-2,4.749537958E-3,-8.269132376E-2,8.471826028E-2
1.411846462E1,1.874956751E-2,-1.968475199E-2,4.065276682E-2,4.890483814E-2
1.412842863E1,1.752553971E-2,-1.367964325E-2,-1.263524830E-2,2.557199016E-2
1.413839163E1,8.383134808E-3,1.169662401E-3,-1.106819451E-1,1.110051261E-1
1.414835562E1,1.073969519E-2,8.851770870E-3,1.924727976E-2,2.375189842E-2
1.415831963E1,2.112373349E-2,9.272459764E-3,2.867942333E-2,3.680624878E-2
1.416828263E1,2.167748766E-2,-7.589018969E-3,-9.855657399E-2,1.011973565E-1
1.417824663E1,1.684910822E-2,-1.833999289E-2,-3.029793262E-2,3.922005238E-2
1.418821063E1,2.456639591E-2,-1.008658404E-2,1.101556957E-2,2.875047406E-2
1.419817363E1,2.231362361E-2,-1.268968223E-2,-9.795898855E-2,1.012664272E-1
1.420813763E1,6.749473005E-3,-4.568932084E-3,-6.682490408E-2,6.732011833E-2
1.421810062E1,6.143486761E-3,-5.734108575E-4,-4.853188992E-3,7.850138405E-3
1.422806463E1,-3.289935887E-3,1.226222335E-2,-5.230334401E-2,5.382216639E-2
1.423802863E1,5.607594014E-3,8.216379527E-3,-6.263069630E-2,6.341575610E-2
1.424799162E1,1.333777299E-2,-3.569368841E-3,1.191370189E-2,1.823658068E-2
1.425795563E1,7.696584896E-3,-1.209817241E-2,3.032599926E-2,3.354503579E-2
1.426791963E1,2.497053444E-3,3.640997233E-3,-4.122403979E-2,4.145978285E-2
1.427788262E1,9.846898452E-3,7.027430451E-3,-1.421124834E-1,1.426264496E-1
1.428784663E1,1.143296027E-2,-2.662910630E-2,-1.891925097E-2,3.460866857E-2
1.429781063E1,1.306738495E-2,-2.774925009E-2,6.745055616E-2,7.409692947E-2
1.430777363E1,9.322631615E-3,-7.470960030E-3,-1.108281255E-1,1.114701758E-1
1.431773762E1,1.091219262E-2,1.544728395E-2,-9.705500901E-2,9.888058102E-2
1.432770063E1,2.069563508E-2,4.789911155E-3,7.014787674E-2,7.329377307E-2
1.433766463E1,2.694954285E-2,1.239500083E-3,-3.253858566E-2,4.226788116E-2
1.434762862E1,1.670728583E-2,2.913439153E-3,-1.108240324E-1,1.121141726E-1
1.435759163E1,1.675684098E-3,-1.299277813E-2,1.895667315E-2,2.304290905E-2
1.436755563E1,7.475994118E-3,-1.081079825E-2,-1.562259078E-2,2.041639512E-2
1.437751963E1,4.725651168E-3,6.552901492E-3,-8.687383711E-2,8.724870126E-2
1.438748263E1,1.013965666E-2,4.318150487E-3,-2.999153852E-2,3.195233081E-2
1.439744663E1,1.762277707E-2,-2.255961780E-2,-2.026060224E-2,3.507122225E-2
1.440741063E1,1.936554884E-2,-1.253813884E-2,-1.891223431E-2,2.983122548E-2
1.441737362E1,1.848941666E-2,2.982682977E-3,-6.127414227E-2,6.407242337E-2
1.442733763E1,2.261029671E-2,-1.420416590E-3,-5.588651776E-2,6.030378071E-2
1.443730063E1,1.133780597E-2,-1.261737775E-3,4.560068071E-2,4.700595609E-2
1.444726462E1,1.407471403E-2,1.765426068E-2,-4.526154220E-2,5.058040824E-2
1.445722863E1,1.888170088E-2,1.130166287E-2,-1.145668352E-1,1.166610729E-1
1.446719163E1,1.126825608E-2,-1.845185744E-2,-3.646323681E-3,2.192579108E-2
1.447715563E1,1.592590139E-2,-2.242927057E-2,3.287655473E-2,4.286693789E-2
1.448711962E1,5.808468712E-3,-8.785989694E-3,-1.085798711E-1,1.090895060E-1
1.449708263E1,1.424977418E-2,2.981230309E-3,-4.136729658E-2,4.385427031E-2
1.450704663E1,1.428552899E-2,-9.516681517E-3,3.916465044E-2,4.276112030E-2
1.451701062E1,4.659536518E-3,-1.200590517E-2,-4.106674969E-2,4.303871478E-2
1.452697363E1,1.645114124E-3,-2.968119755E-3,-1.004920024E-1,1.005492848E-1
1.453693763E1,6.464051222E-3,-2.913813740E-3,-3.807063639E-2,3.872528404E-2
1.454690062E1,1.589090032E-2,-4.677854748E-3,7.286215425E-3,1.809673930E-2
1.455686463E1,1.932651410E-2,1.201432882E-2,-2.669078529E-2,3.507500910E-2
1.456682937E1,1.656215154E-2,1.567202716E-2,-5.752666175E-2,6.188080568E-2
1.457679238E1,9.589963574E-3,-7.459448325E-3,-3.836650550E-2,4.024424823E-2
1.458675638E1,1.154837882E-2,-3.632463953E-3,-3.492308021E-2,3.696189090E-2
1.459672038E1,1.540104983E-2,-1.023376029E-2,-8.865957677E-2,9.056733815E-2
1.460668338E1,1.649658050E-2,-1.143103251E-2,-1.935428381E-2,2.788178571E-2
1.461664738E1,1.977158771E-2,-2.969837375E-4,6.971050501E-2,7.246073688E-2
1.462661138E1,1.904873938E-2,1.780966870E-2,-6.620509923E-2,7.115584259E-2
1.463657437E1,5.139830466E-3,1.192532323E-2,-1.233838516E-1,1.240653297E-1
1.464653838E1,1.454125331E-2,-9.898267156E-3,4.187308073E-2,4.541782283E-2
1.465650238E1,2.726916628E-2,-1.223038344E-2,-2.907820344E-2,4.169810096E-2
1.466646537E1,2.350278738E-2,-1.016708376E-2,-1.178424454E-1,1.205926720E-1
1.467642938E1,1.975913954E-2,2.228510929E-3,3.199596405E-2,3.767136275E-2
1.468639238E1,9.164560363E-3,9.608007716E-3,-1.534309387E-3,1.336626665E-2
1.469635638E1,7.141272998E-3,1.024525372E-2,-1.172425210E-1,1.179057749E-1
1.470632037E1,1.720048020E-2,-3.267488061E-3,-1.126232207E-2,2.081761023E-2
1.471628338E1,2.507445500E-2,-2.489318674E-2,3.634044528E-2,5.068556997E-2
1.472624738E1,1.560347313E-2,-2.505436890E-2,-8.954776883E-2,9.428675770E-2
1.473621137E1,3.787387758E-3,-2.511561848E-5,-6.110808134E-2,6.122534232E-2
1.474617438E1,4.765763981E-3,4.759240681E-3,-1.650142729E-2,1.782301829E-2
1.475613838E1,9.108833657E-3,8.592337221E-3,-6.485029936E-2,6.604816755E-2
1.476610237E1,1.394135183E-2,-1.725449385E-2,-6.500115752E-2,6.868208884E-2
1.477606538E1,1.312129354E-2,-2.481783989E-2,4.004173279E-3,2.835713181E-2
1.478602938E1,1.624672623E-2,-6.277049957E-3,4.756417572E-2,5.065282107E-2
1.479599238E1,1.620250667E-2,2.269468848E-2,-8.580613554E-2,9.022340607E-2
1.480595637E1,1.827338031E-2,1.549041630E-2,-1.313103372E-1,1.334776164E-1
1.481592038E1,2.450280287E-2,-3.023205095E-2,2.735970676E-2,4.757013567E-2
1.482588338E1,2.095467587E-2,-4.230981292E-2,2.870690525E-2,5.525672013E-2
1.483584737E1,2.826906300E-2,-1.620099004E-3,-1.411897928E-1,1.440011188E-1
1.484581138E1,2.058861276E-2,1.729024409E-2,-3.715671659E-2,4.586354875E-2
1.485577438E1,1.265877421E-2,5.016636942E-3,8.828360081E-2,8.932751750E-2
1.486573837E1,2.631708425E-2,4.824565044E-3,-9.688310087E-2,1.005097039E-1
1.487570238E1,2.033133070E-2,-1.162256537E-2,-1.164923233E-1,1.188230130E-1
1.488566538E1,1.923734406E-2,-3.226681804E-2,3.409277558E-2,5.073007294E-2
1.489562938E1,1.465694139E-2,-1.932326616E-2,-8.120028377E-3,2.557634467E-2
1.490559238E1,-5.161250462E-3,1.199349811E-2,-8.790236235E-2,8.886679813E-2
1.491555638E1,-1.803559050E-2,6.542184642E-3,-2.652823269E-2,3.273881235E-2
1.492552038E1,-8.063931651E-3,2.986374032E-4,2.765791476E-2,2.881104696E-2
1.493548337E1,1.346621074E-2,-6.835623505E-3,-4.523873806E-2,4.769285063E-2
1.494544738E1,1.470202433E-2,-1.969519475E-2,-8.370698512E-2,8.724052713E-2
1.495541138E1,1.142879869E-2,-2.740012564E-2,-2.428056300E-2,3.835270608E-2
1.496537437E1,4.141660505E-3,1.492892828E-2,4.592461646E-2,4.846748031E-2
1.497533838E1,5.360398404E-3,1.755394438E-2,-7.786503196E-2,7.999898772E-2
1.498530238E1,1.080039660E-2,2.907336121E-3,-1.244170547E-1,1.249187923E-1
1.499526538E1,1.754843521E-2,-2.871041358E-2,-7.741362691E-2,8.441033738E-2
1.500522937E1,1.659497361E-2,-4.823944691E-2,-2.101857680E-1,2.162879896E-1
1.501519238E1,3.048899953E-2,-4.165444968E-2,-2.000045961E-1,2.065587344E-1
1.502515638E1,4.517085097E-2,-4.130400047E-3,-4.358105242E-2,6.290289431E-2
1.503512037E1,4.153734092E-2,3.827605639E-2,-1.016585219E-1,1.162964413E-1
1.504508338E1,2.455115204E-2,4.939764328E-2,-2.022481728E-1,2.096358977E-1
1.505504738E1,2.494991387E-2,3.853589203E-3,-1.277020204E-1,1.301735548E-1
1.506501138E1,3.318381677E-2,-3.974550736E-2,-7.740719497E-2,9.312757317E-2
1.507497438E1,2.691283787E-2,-2.869822579E-2,-1.112380153E-1,1.179906143E-1
1.508493838E1,1.745154502E-2,-2.486071642E-4,-1.847351772E-1,1.855578182E-1
1.509490238E1,6.806524470E-3,5.886940174E-3,-1.429726088E-1,1.432555469E-1
1.510486537E1,3.147021714E-3,-6.058016913E-3,-9.088034928E-2,9.113638790E-2
1.511482938E1,9.679937605E-3,-6.744580530E-3,-1.760526466E-1,1.764475133E-1
1.512479338E1,7.813474392E-3,-7.469114503E-3,-1.296491432E-1,1.300989561E-1
1.513475637E1,2.947846362E-2,-8.155075125E-3,-6.199042618E-2,6.912523422E-2
1.514472038E1,1.539591524E-2,1.136022639E-2,-1.347397292E-1,1.360914529E-1
1.515468338E1,1.005264279E-3,1.743205735E-2,-1.896743202E-1,1.904763369E-1
1.516464738E1,1.602987219E-2,1.344077535E-2,-8.474252701E-2,8.728635133E-2
1.517461138E1,1.814431673E-2,-1.457665181E-2,-7.605824232E-2,7.953962052E-2
1.518457438E1,1.176083832E-2,-3.109163733E-2,-2.106272328E-1,2.132342337E-1
1.519453838E1,4.404689278E-4,-3.391545877E-2,-8.593652844E-2,9.238798232E-2
1.520450237E1,9.522839366E-3,-2.039075760E-2,-7.515894055E-2,7.845593547E-2
1.521446538E1,1.653379255E-2,7.767130639E-3,-2.122703004E-1,2.130548639E-1
1.522442938E1,2.738206322E-2,-7.447525486E-4,-1.211087000E-1,1.241678270E-1
1.523439337E1,2.913700907E-2,-2.744916916E-2,-6.242955208E-2,7.416111621E-2
1.524435638E1,2.847952165E-2,-2.665091459E-2,-1.631683069E-1,1.677654636E-1
1.525432038E1,1.120586903E-2,1.420297818E-3,-1.543355030E-1,1.547482996E-1
1.526428337E1,2.267217213E-2,1.860752128E-2,-9.565810919E-2,1.000536910E-1
1.527424738E1,4.264738913E-2,3.392390069E-4,-1.236493152E-1,1.307978136E-1
1.528421138E1,3.169751394E-2,-3.122056844E-3,-1.522392762E-1,1.555354520E-1
1.529417438E1,1.705224414E-2,-1.047712323E-2,-1.118221521E-1,1.135990442E-1
1.530413837E1,3.125566544E-2,-2.493465629E-2,-1.579268628E-1,1.629096305E-1
1.531410238E1,3.860414914E-2,-2.305939028E-2,-5.673787236E-2,7.239614611E-2
1.532406538E1,1.776618917E-2,-6.349911746E-3,-1.264916468E-1,1.278909518E-1
1.533402937E1,9.982101610E-3,8.439779710E-3,-2.435470569E-1,2.438976039E-1
1.534399338E1,1.360196664E-2,-4.611671576E-3,-1.946245730E-2,2.418818421E-2
1.535395638E1,2.032190207E-2,-9.553208342E-3,-9.715090334E-2,9.971229370E-2
1.536392038E1,2.660560323E-2,3.949282542E-3,-1.181055701E-1,1.211296027E-1
1.537388437E1,1.665524104E-2,-1.918407502E-3,-2.079193872E-1,2.085942207E-1
1.538384738E1,8.240736835E-4,-2.016595043E-3,-1.399607080E-1,1.399776609E-1
1.539381138E1,1.543621078E-2,-9.303431734E-3,-3.023010492E-4,1.802558824E-2
1.540377437E1,3.510734059E-2,-8.541932395E-3,-4.011891603E-2,5.399090105E-2
1.541373838E1,-8.840414481E-3,1.516435180E-2,-1.826553226E-2,2.533259091E-2
1.542370238E1,-2.203017069E-2,7.155584972E-3,-5.838152468E-2,6.280870355E-2
1.543366537E1,2.543164222E-3,-2.717147210E-2,-5.837860107E-2,6.444235908E-2
1.544362938E1,3.333229494E-2,-2.826710327E-2,3.876937866E-2,5.842204836E-2
1.545359338E1,3.565518358E-2,-2.633252456E-2,-5.993396044E-4,4.432892029E-2
1.546355638E1,2.109726571E-2,-2.280158289E-2,-1.392046630E-2,3.404094864E-2
1.547352037E1,-1.702925728E-2,-5.323743671E-3,-6.870478392E-2,7.098369660E-2
1.548348438E1,-1.350789042E-2,-1.358918499E-2,-1.454939282E-1,1.467501693E-1
1.549344738E1,2.875198819E-2,-2.359129504E-2,-1.825851560E-2,4.143186477E-2
1.550341137E1,4.638534507E-2,-3.024887997E-2,1.602020144E-2,5.764756570E-2
1.551337538E1,3.754684464E-2,-7.437219769E-3,-7.558988035E-2,8.472843555E-2
1.552333838E1,2.737359846E-2,-1.253072932E-2,-3.532595336E-2,4.641396397E-2
1.553330237E1,1.253553957E-2,1.462388635E-3,-2.514653563E-2,2.813585946E-2
1.554326538E1,3.124177373E-2,-2.231672080E-3,-6.107065916E-2,6.863420573E-2
1.555322938E1,4.365593333E-2,-1.925097082E-2,-1.272295654E-2,4.937928731E-2
1.556319338E1,3.548368657E-2,-4.312411079E-2,-2.095642090E-2,5.964857518E-2
1.557315604E1,2.555595950E-2,-2.166837422E-2,-7.693824828E-2,8.391733763E-2
1.558312004E1,2.309028002E-2,1.103733217E-2,-5.223960936E-2,5.817181894E-2
1.559308404E1,2.537490595E-2,3.155393282E-2,-1.975540280E-2,4.505344014E-2
1.560304704E1,3.037684720E-2,2.004559829E-2,-4.475224972E-2,5.768312328E-2
1.561301104E1,3.067993853E-2,-1.257882267E-2,-1.586115718E-2,3.675679142E-2
1.562297504E1,1.576400660E-2,-8.087146925E-3,-1.481392086E-2,2.309454699E-2
1.563293804E1,1.176550238E-2,1.916440462E-2,-3.472252071E-2,4.136852542E-2
1.564290204E1,8.310209066E-3,1.124284353E-2,-5.148414910E-2,5.334865241E-2
1.565286604E1,7.713455027E-3,-1.163181128E-2,-5.312897086E-2,5.493162993E-2
1.566282904E1,8.183708210E-3,-2.922622022E-2,-3.217313468E-2,4.422957861E-2
1.567279304E1,9.721297519E-3,-3.761325622E-2,-1.959869742E-2,4.351286717E-2
1.568275704E1,9.758692291E-3,-1.175862277E-2,-3.351916373E-2,3.683791012E-2
1.569272004E1,1.927477538E-2,5.552269304E-3,-2.154289663E-2,2.943537082E-2
1.570268404E1,1.146329727E-2,7.594811367E-3,-4.519254506E-2,4.723827339E-2
1.571264704E1,1.427664396E-2,-2.179092821E-4,-4.474230945E-2,4.696535215E-2
1.572261104E1,3.216568862E-2,-1.417301120E-2,-1.061152697E-2,3.671662124E-2
1.573257504E1,3.689858485E-2,-1.676887346E-2,-3.426234484E-2,5.307173405E-2
1.574253804E1,2.442302036E-2,-1.880497444E-2,-4.683619738E-2,5.606906787E-2
1.575250204E1,9.219894209E-3,-1.098584013E-2,-2.917351305E-2,3.250829120E-2
1.576246604E1,1.587276938E-2,-2.203176040E-3,-5.372070909E-2,5.605990882E-2
1.577242904E1,3.211855915E-2,-1.371798819E-2,-4.578545272E-2,5.758552529E-2
1.578239304E1,4.364601590E-2,-2.239134589E-2,-1.390117049E-2,5.098617083E-2
1.579235704E1,3.559822805E-2,-3.876822749E-3,-2.722405136E-2,4.498235840E-2
1.580232004E1,3.433283119E-2,2.698115436E-3,-4.758113265E-2,5.873659259E-2
1.581228404E1,2.939546057E-2,1.564839162E-2,-2.422910750E-2,4.118270162E-2
1.582224804E1,3.330709253E-2,1.148972394E-2,-3.290988386E-2,4.821241152E-2
1.583221104E1,2.374060918E-2,-4.083055872E-3,-2.587334454E-2,3.535134831E-2
1.584217504E1,2.624681260E-2,-1.999121005E-2,-2.198085308E-2,3.964469136E-2
1.585213804E1,1.394345774E-2,-1.663929367E-2,-2.482610822E-2,3.297911092E-2
1.586210204E1,1.167422187E-2,-5.080956314E-4,-3.335836530E-2,3.534580813E-2
